Scan Count	Temperature [ITS-90, deg C]	Conductivity [S/m]	Pressure, Strain Gauge [db]	Depth [salt water, m]	Oxygen Saturation, Weiss [ml/l]	Salinity, Practical [PSU]
1	20.27215	0.0001574	0.0531	0.0528	6.316166	0.01014
2	20.27755	0.0001667	0.0501	0.0498	6.315486	0.01016
3	20.28243	0.0001636	0.0531	0.0528	6.314873	0.01015
4	20.28566	0.0001667	0.0592	0.0588	6.314467	0.01016
5	20.28311	0.0001667	0.0531	0.0528	6.314788	0.01016
6	20.27838	0.0001728	0.0531	0.0528	6.315382	0.01017
7	20.27560	0.0001759	0.0531	0.0528	6.315731	0.01017
8	20.27567	0.0001636	0.0592	0.0588	6.315722	0.01015
9	20.27365	0.0001759	0.0531	0.0528	6.315976	0.01017
10	20.26471	0.0001759	0.0531	0.0528	6.317099	0.01017
11	20.26134	0.0001790	0.0561	0.0558	6.317524	0.01017
12	20.25398	0.0001821	0.0500	0.0497	6.318449	0.01018
13	20.23441	0.0001728	0.0561	0.0558	6.320913	0.01015
14	20.21065	0.0001821	0.0561	0.0558	6.323905	0.01016
15	20.20203	0.0001759	0.0500	0.0497	6.324991	0.01015
16	20.18892	0.0001790	0.0531	0.0528	6.326643	0.01015
17	20.17709	0.0001821	0.0470	0.0467	6.328135	0.01015
18	20.18114	0.0001728	0.0500	0.0497	6.327625	0.01013
19	20.19057	0.0001821	0.0500	0.0497	6.326435	0.01015
20	20.19986	0.0001821	0.0561	0.0558	6.325264	0.01016
21	20.20907	0.0001790	0.0561	0.0558	6.324103	0.01015
22	20.21672	0.0001821	0.0530	0.0528	6.323140	0.01016
23	20.22414	0.0001882	0.0500	0.0498	6.322205	0.01018
24	20.23111	0.0001821	0.0470	0.0467	6.321328	0.01017
25	20.23703	0.0001821	0.0561	0.0558	6.320582	0.01017
26	20.24348	0.0001790	0.0530	0.0527	6.319770	0.01017
27	20.24971	0.0001821	0.0531	0.0528	6.318987	0.01018
28	20.25458	0.0001882	0.0531	0.0528	6.318373	0.01019
29	20.25616	0.0002006	0.0591	0.0588	6.318174	0.01022
30	20.25796	0.0002006	0.0561	0.0558	6.317947	0.01022
31	20.26239	0.0001882	0.0561	0.0558	6.317391	0.01019
32	20.26554	0.0002098	0.0530	0.0527	6.316993	0.01024
33	20.25969	0.0001913	0.0500	0.0497	6.317731	0.01020
34	20.24221	0.0001975	0.0530	0.0527	6.319929	0.01020
35	20.22211	0.0002191	0.0561	0.0558	6.322457	0.01024
36	20.20877	0.0002129	0.0591	0.0588	6.324138	0.01022
37	20.20270	0.0002098	0.0561	0.0558	6.324903	0.01022
38	20.17388	0.0002283	0.0530	0.0527	6.328537	0.01025
39	20.14515	0.0002437	0.0561	0.0558	6.332162	0.01027
40	20.13333	0.0002622	0.0561	0.0558	6.333652	0.01031
41	20.13520	0.0002838	0.0591	0.0588	6.333414	0.01037
42	20.14223	0.0002992	0.0591	0.0588	6.332525	0.01042
43	20.15120	0.0003177	0.0622	0.0618	6.331389	0.01047
44	20.15996	0.0003300	0.0591	0.0588	6.330283	0.01051
45	20.16841	0.0003331	0.0591	0.0588	6.329216	0.01052
46	20.17605	0.0003300	0.0561	0.0558	6.328253	0.01051
47	20.18106	0.0003239	0.0591	0.0588	6.327621	0.01050
48	20.16953	0.0003177	0.0530	0.0527	6.329076	0.01048
49	20.14358	0.0003054	0.0561	0.0558	6.332354	0.01043
50	20.12937	0.0002992	0.0531	0.0528	6.334149	0.01041
51	20.12765	0.0002900	0.0530	0.0528	6.334367	0.01039
52	20.13124	0.0002900	0.0561	0.0558	6.333914	0.01039
53	20.12526	0.0002900	0.0561	0.0558	6.334669	0.01038
54	20.12302	0.0002745	0.0622	0.0618	6.334954	0.01034
55	20.12780	0.0002807	0.0530	0.0527	6.334349	0.01036
56	20.12922	0.0002745	0.0561	0.0558	6.334170	0.01034
57	20.13012	0.0002715	0.0561	0.0558	6.334057	0.01034
58	20.13214	-0.1405173	0.0895	0.0890	6.334189	0.00000
59	19.32003	1.8112578	0.2508	0.2494	5.989604	12.17349
60	16.74005	3.0650385	0.4516	0.4491	5.906711	23.05252
61	14.62097	3.0847750	0.6737	0.6700	6.113482	24.49147
62	13.21895	3.0939094	0.8897	0.8848	6.257291	25.48165
63	12.38997	3.1145281	1.0084	1.0029	6.338951	26.23735
64	11.96578	3.1279706	1.0419	1.0361	6.380111	26.66248
65	11.78560	3.1441136	1.0358	1.0301	6.393713	26.94439
66	11.73446	3.1601012	1.0358	1.0301	6.393230	27.13308
67	11.72519	3.1601012	1.0388	1.0331	6.394242	27.13984
68	11.71598	3.1607514	1.0358	1.0301	6.395001	27.15273
69	11.67389	3.1626341	1.0358	1.0301	6.398884	27.20137
70	11.61530	3.1709863	1.0388	1.0331	6.402099	27.32384
71	11.59145	3.1828840	1.0388	1.0331	6.400150	27.45482
72	11.59665	3.1847340	1.0418	1.0361	6.398873	27.46861
73	11.59846	3.1925733	1.0297	1.0240	6.395673	27.54204
74	11.57900	3.1896779	1.0327	1.0271	6.398904	27.52885
75	11.53170	3.1798497	1.0388	1.0331	6.407844	27.47008
76	11.48277	3.1780633	1.0418	1.0361	6.413888	27.48928
77	11.45195	3.1800615	1.0449	1.0392	6.416494	27.53127
78	11.44153	3.1818242	1.0479	1.0422	6.416956	27.55590
79	11.43536	3.1779769	1.0388	1.0331	6.419118	27.52365
80	11.41621	3.1711681	1.0388	1.0331	6.423851	27.47267
81	11.38952	3.1680014	1.0357	1.0300	6.428011	27.46215
82	11.36650	3.1677600	1.0388	1.0331	6.430637	27.47692
83	11.35837	3.1708401	1.0479	1.0422	6.430338	27.51250
84	11.36232	3.1744670	1.0449	1.0391	6.428497	27.54435
85	11.36192	3.1750066	1.0449	1.0392	6.428332	27.54983
86	11.34920	3.1702018	1.0418	1.0361	6.431595	27.51321
87	11.33224	3.1659636	1.0388	1.0331	6.435107	27.48515
88	11.31669	3.1648673	1.0449	1.0392	6.437248	27.48619
89	11.30340	3.1664037	1.0510	1.0452	6.438115	27.51082
90	11.29621	3.1700846	1.0510	1.0452	6.437476	27.55154
91	11.29940	3.1732275	1.0510	1.0452	6.435902	27.57936
92	11.29981	3.1725331	1.0479	1.0422	6.436127	27.57238
93	11.28636	3.1661561	1.0479	1.0422	6.440092	27.52114
94	11.26549	3.1610717	1.0449	1.0392	6.444376	27.48782
95	11.24719	3.1597162	1.0510	1.0452	6.446927	27.48841
96	11.23624	3.1619760	1.0540	1.0482	6.447255	27.51830
97	11.23844	3.1659831	1.0510	1.0452	6.445448	27.55521
98	11.25147	3.1683250	1.0479	1.0422	6.443096	27.56801
99	11.25732	3.1638708	1.0449	1.0392	6.444187	27.52081
100	11.25211	3.1578840	1.0479	1.0422	6.447098	27.46713
101	11.24325	3.1579150	1.0418	1.0361	6.448065	27.47403
102	11.23653	3.1616107	1.0510	1.0452	6.447366	27.51457
103	11.23705	3.1660637	1.0449	1.0391	6.445570	27.55702
104	11.24139	3.1693290	1.0510	1.0452	6.443816	27.58519
105	11.24371	3.1701161	1.0540	1.0482	6.443253	27.59104
106	11.24134	3.1668566	1.0510	1.0452	6.444787	27.56145
107	11.23219	3.1624529	1.0510	1.0452	6.447517	27.52591
108	11.22038	3.1604964	1.0510	1.0452	6.449587	27.51589
109	11.21303	3.1617719	1.0510	1.0452	6.449901	27.53364
110	11.21130	3.1647136	1.0571	1.0513	6.448943	27.56326
111	11.21228	3.1676128	1.0540	1.0482	6.447701	27.59044
112	11.21321	3.1680652	1.0479	1.0422	6.447422	27.59410
113	11.21025	3.1648684	1.0479	1.0422	6.448998	27.56553
114	11.20470	3.1638341	1.0540	1.0482	6.450016	27.55972
115	11.20100	3.1668571	1.0479	1.0422	6.449243	27.59160
116	11.20383	3.1707178	1.0540	1.0482	6.447421	27.62666
117	11.21280	3.1749523	1.0570	1.0512	6.444776	27.66073
118	11.22021	3.1770672	1.0449	1.0391	6.443132	27.67555
119	11.22044	3.1722922	1.0449	1.0391	6.444972	27.62939
120	11.21697	3.1679412	1.0479	1.0422	6.447055	27.59010
121	11.21367	3.1680652	1.0540	1.0482	6.447371	27.59375
122	11.21222	3.1699057	1.0540	1.0482	6.446812	27.61256
123	11.21263	3.1715669	1.0510	1.0452	6.446118	27.62825
124	11.21390	3.1733462	1.0419	1.0361	6.445282	27.64444
125	11.21598	3.1750081	1.0449	1.0392	6.444403	27.65888
126	11.21992	3.1760748	1.0479	1.0422	6.443552	27.66620
127	11.22327	3.1756158	1.0479	1.0422	6.443361	27.65927
128	11.22374	3.1736189	1.0449	1.0392	6.444090	27.63969
129	11.22275	3.1729865	1.0510	1.0452	6.444445	27.63434
130	11.22420	3.1743444	1.0419	1.0362	6.443755	27.64633
131	11.22947	3.1759755	1.0479	1.0422	6.442537	27.65809
132	11.23607	3.1775199	1.0449	1.0392	6.441207	27.66801
133	11.23989	3.1772531	1.0480	1.0422	6.440890	27.66258
134	11.24029	3.1766762	1.0480	1.0422	6.441070	27.65672
135	11.24047	3.1767073	1.0480	1.0422	6.441039	27.65689
136	11.24296	3.1776749	1.0449	1.0392	6.440387	27.66434
137	11.24834	3.1790336	1.0480	1.0422	6.439264	27.67338
138	11.25489	3.1800636	1.0480	1.0422	6.438141	27.67839
139	11.25970	3.1803862	1.0449	1.0392	6.437486	27.67789
140	11.26120	3.1799146	1.0510	1.0452	6.437504	27.67222
141	11.26109	3.1804606	1.0480	1.0422	6.437304	27.67756
142	11.26277	3.1820681	1.0419	1.0362	6.436493	27.69177
143	11.26827	3.1830363	1.0450	1.0392	6.435510	27.69695
144	11.27511	3.1830983	1.0480	1.0422	6.434733	27.69242
145	11.27812	3.1818258	1.0450	1.0392	6.434897	27.67793
146	11.27662	3.1807708	1.0450	1.0392	6.435474	27.66891
147	11.27552	3.1814907	1.0510	1.0453	6.435315	27.67665
148	11.27812	3.1822789	1.0480	1.0422	6.434721	27.68228
149	11.28328	3.1826451	1.0419	1.0362	6.434011	27.68194
150	11.28665	3.1821547	1.0419	1.0362	6.433832	27.67470
151	11.28647	3.1809444	1.0480	1.0423	6.434322	27.66320
152	11.28444	3.1804294	1.0480	1.0422	6.434746	27.65976
153	11.28294	3.1813479	1.0480	1.0423	6.434554	27.66972
154	11.28433	3.1829741	1.0511	1.0453	6.433768	27.68432
155	11.28966	3.1845820	1.0511	1.0453	6.432556	27.69578
156	11.29714	3.1866186	1.0480	1.0423	6.430941	27.70976
157	11.30520	3.1888670	1.0450	1.0393	6.429181	27.72533
158	11.31338	3.1912961	1.0450	1.0392	6.427339	27.74254
159	11.32174	3.1933655	1.0511	1.0453	6.425619	27.75615
160	11.33038	3.1954726	1.0481	1.0423	6.423852	27.76991
161	11.33857	3.1983017	1.0481	1.0423	6.421857	27.79094
162	11.34739	3.2004848	1.0389	1.0332	6.420044	27.80529
163	11.35727	3.2003478	1.0450	1.0393	6.419016	27.79655
164	11.36494	3.1985191	1.0481	1.0423	6.418886	27.77322
165	11.36662	3.1966909	1.0511	1.0453	6.419410	27.75440
166	11.36290	3.1962930	1.0451	1.0393	6.419971	27.75337
167	11.35994	3.1967780	1.0481	1.0423	6.420108	27.76025
168	11.36070	3.1963863	1.0512	1.0454	6.420177	27.75592
169	11.36314	3.1950744	1.0481	1.0423	6.420418	27.74150
170	11.36221	3.1933651	1.0511	1.0454	6.421183	27.72579
171	11.35651	3.1924391	1.0511	1.0454	6.422166	27.72116
172	11.35163	3.1941608	1.0542	1.0484	6.422033	27.74135
173	11.35245	3.1974185	1.0542	1.0484	6.420680	27.77203
174	11.36087	3.1999808	1.0512	1.0454	6.418765	27.79031
175	11.37336	3.2002232	1.0512	1.0454	6.417304	27.78326
176	11.38557	3.1999183	1.0481	1.0424	6.416087	27.77117
177	11.39341	3.2003785	1.0573	1.0515	6.415050	27.76969
178	11.39696	3.2024253	1.0542	1.0484	6.413871	27.78667
179	11.40062	3.2049580	1.0634	1.0575	6.412491	27.80821
180	11.40725	3.2058480	1.0543	1.0485	6.411422	27.81177
181	11.41487	3.2058480	1.0543	1.0485	6.410590	27.80605
182	11.42122	3.2059973	1.0512	1.0455	6.409840	27.80272
183	11.42459	3.2061529	1.0543	1.0485	6.409412	27.80167
184	11.42727	3.2062462	1.0512	1.0455	6.409084	27.80056
185	11.42965	3.2067006	1.0573	1.0515	6.408648	27.80312
186	11.43245	3.2093654	1.0543	1.0485	6.407314	27.82658
187	11.43804	3.2127349	1.0513	1.0455	6.405404	27.85469
188	11.44776	3.2129217	1.0482	1.0425	6.404272	27.84917
189	11.45830	3.2107415	1.0543	1.0485	6.403965	27.82035
190	11.46424	3.2096079	1.0513	1.0455	6.403754	27.80503
191	11.46500	3.2110217	1.0574	1.0516	6.403127	27.81800
192	11.46587	3.2151895	1.0544	1.0486	6.401425	27.85728
193	11.47245	3.2193344	1.0574	1.0516	6.399112	27.89204
194	11.48469	3.2216414	1.0483	1.0425	6.396892	27.90494
195	11.49927	3.2232067	1.0483	1.0425	6.394706	27.90896
196	11.51367	3.2243481	1.0574	1.0516	6.392703	27.90904
197	11.52697	3.2249594	1.0574	1.0516	6.391025	27.90488
198	11.53917	3.2249467	1.0544	1.0486	6.389706	27.89558
199	11.54933	3.2245598	1.0514	1.0456	6.388753	27.88424
200	11.55768	3.2256079	1.0575	1.0517	6.387446	27.88799
201	11.56480	3.2282599	1.0514	1.0456	6.385656	27.90799
202	11.57339	3.2296455	1.0636	1.0577	6.384195	27.91478
203	11.58332	3.2254204	1.0544	1.0486	6.384738	27.86693
204	11.58940	3.2184417	1.0545	1.0487	6.386752	27.79570
205	11.58256	3.2154936	1.0575	1.0517	6.388623	27.77266
206	11.56737	3.2176440	1.0575	1.0517	6.389448	27.80458
207	11.55949	3.2215471	1.0545	1.0487	6.388807	27.84780
208	11.56363	3.2201627	1.0545	1.0487	6.388888	27.83145
209	11.57070	3.2130388	1.0545	1.0487	6.390852	27.75808
210	11.56206	3.2083864	1.0606	1.0548	6.393576	27.72009
211	11.53543	3.2085673	1.0606	1.0548	6.396402	27.74172
212	11.51256	3.2127030	1.0454	1.0397	6.397301	27.79841
213	11.50784	3.2130706	1.0546	1.0488	6.397674	27.80547
214	11.51297	3.2082002	1.0545	1.0487	6.398988	27.75502
215	11.50959	3.2052930	1.0606	1.0548	6.400475	27.72973
216	11.49209	3.2072229	1.0546	1.0488	6.401638	27.76130
217	11.47741	3.2135008	1.0576	1.0518	6.400820	27.83243
218	11.47997	3.2183805	1.0607	1.0549	6.398661	27.87725
219	11.49390	3.2179502	1.0516	1.0458	6.397312	27.86265
220	11.50620	3.2129772	1.0546	1.0488	6.397887	27.80580
221	11.50667	3.2092712	1.0607	1.0549	6.399262	27.76998
222	11.49466	3.2100685	1.0638	1.0579	6.400263	27.78661
223	11.48347	3.2134385	1.0577	1.0519	6.400184	27.82728
224	11.48201	3.2128279	1.0547	1.0489	6.400578	27.82253
225	11.48516	3.2066440	1.0547	1.0489	6.402617	27.76095
226	11.47781	3.2006203	1.0638	1.0580	6.405738	27.70878
227	11.45480	3.1966589	1.0547	1.0489	6.409778	27.68805
228	11.42977	3.1951359	1.0547	1.0489	6.413102	27.69218
229	11.41138	3.1937934	1.0578	1.0520	6.415632	27.69306
230	11.39760	3.1923019	1.0547	1.0489	6.417718	27.68907
231	11.38400	3.1901148	1.0548	1.0490	6.420054	27.67827
232	11.36889	3.1868911	1.0578	1.0520	6.422960	27.65864
233	11.35204	3.1841281	1.0517	1.0459	6.425879	27.64472
234	11.33561	3.1830667	1.0579	1.0520	6.428096	27.64682
235	11.32336	3.1848548	1.0579	1.0520	6.428747	27.67315
236	11.31971	3.1881960	1.0579	1.0520	6.427850	27.70799
237	11.32545	3.1882394	1.0548	1.0490	6.427202	27.70411
238	11.33456	3.1856433	1.0548	1.0490	6.427210	27.67234
239	11.33799	3.1846746	1.0518	1.0460	6.427210	27.66048
240	11.33520	3.1866493	1.0549	1.0491	6.426749	27.68153
241	11.33369	3.1904447	1.0549	1.0491	6.425442	27.71911
242	11.33944	3.1925449	1.0579	1.0521	6.423996	27.73498
243	11.34966	3.1917866	1.0549	1.0491	6.423170	27.72003
244	11.35826	3.1917555	1.0549	1.0491	6.422240	27.71329
245	11.36383	3.1941420	1.0580	1.0522	6.420703	27.73202
246	11.36953	3.1974805	1.0610	1.0552	6.418786	27.75980
247	11.37818	3.1981210	1.0580	1.0522	6.417590	27.75945
248	11.38778	3.1948006	1.0550	1.0492	6.417826	27.72040
249	11.39301	3.1923952	1.0580	1.0522	6.418185	27.69341
250	11.39086	3.1941604	1.0550	1.0492	6.417737	27.71195
251	11.38911	3.1989729	1.0581	1.0522	6.416065	27.75943
252	11.39510	3.2013241	1.0581	1.0523	6.414500	27.77750
253	11.40603	3.1978159	1.0581	1.0523	6.414662	27.73564
254	11.41301	3.1935821	1.0551	1.0493	6.415536	27.68982
255	11.41034	3.1943715	1.0551	1.0493	6.415523	27.69939
256	11.40534	3.1977849	1.0521	1.0463	6.414750	27.73587
257	11.40813	3.1988856	1.0581	1.0523	6.414019	27.74433
258	11.41627	3.1959567	1.0581	1.0523	6.414261	27.71015
259	11.42052	3.1941290	1.0612	1.0554	6.414503	27.68945
260	11.41773	3.1960810	1.0551	1.0493	6.414054	27.71025
261	11.41615	3.2001046	1.0582	1.0524	6.412671	27.75000
262	11.42157	3.2015354	1.0582	1.0524	6.411526	27.75967
263	11.43152	3.1987610	1.0552	1.0494	6.411511	27.72562
264	11.43786	3.1965036	1.0491	1.0434	6.411689	27.69924
265	11.43728	3.1988107	1.0583	1.0524	6.410862	27.72178
266	11.43716	3.2036134	1.0553	1.0495	6.409020	27.76789
267	11.44409	3.2063332	1.0522	1.0464	6.407215	27.78877
268	11.45556	3.2049263	1.0614	1.0555	6.406506	27.76668
269	11.46535	3.2015660	1.0614	1.0556	6.406734	27.72716
270	11.46902	3.2003156	1.0584	1.0526	6.406816	27.71244
271	11.46739	3.2026050	1.0614	1.0556	6.406111	27.73559
272	11.46773	3.2049013	1.0553	1.0495	6.405188	27.75732
273	11.47374	3.2040113	1.0584	1.0526	6.404876	27.74430
274	11.48084	3.2008940	1.0585	1.0526	6.405302	27.70913
275	11.48230	3.1982132	1.0615	1.0557	6.406176	27.68238
276	11.47612	3.1959125	1.0585	1.0527	6.407736	27.66498
277	11.46418	3.1937929	1.0585	1.0527	6.409858	27.65360
278	11.44933	3.1919658	1.0616	1.0557	6.412187	27.64719
279	11.43396	3.1912700	1.0555	1.0497	6.414137	27.65200
280	11.42069	3.1922395	1.0555	1.0497	6.415214	27.67121
281	11.41325	3.1935821	1.0585	1.0527	6.415510	27.68964
282	11.41208	3.1939488	1.0647	1.0588	6.415496	27.69403
283	11.41400	3.1933956	1.0586	1.0528	6.415499	27.68729
284	11.41505	3.1934391	1.0617	1.0558	6.415368	27.68692
285	11.41464	3.1957764	1.0647	1.0589	6.414509	27.70963
286	11.41668	3.1996754	1.0617	1.0558	6.412779	27.74550
287	11.42442	3.2029104	1.0587	1.0529	6.410684	27.77071
288	11.43606	3.2055427	1.0587	1.0529	6.408396	27.78722
289	11.44799	3.2088733	1.0587	1.0529	6.405809	27.81018
290	11.45812	3.2126413	1.0557	1.0499	6.403251	27.83868
291	11.46465	3.2153142	1.0588	1.0530	6.401510	27.85939
292	11.47041	3.2170280	1.0618	1.0560	6.400222	27.87148
293	11.47933	3.2188730	1.0588	1.0530	6.398541	27.88245
294	11.49192	3.2214854	1.0527	1.0469	6.396167	27.89800
295	11.51174	3.2244355	1.0649	1.0591	6.392879	27.91132
296	11.55125	3.2268372	1.0558	1.0500	6.387670	27.90458
297	11.61729	3.2282843	1.0589	1.0531	6.379963	27.86879
298	11.69710	3.2297940	1.0619	1.0561	6.370760	27.82338
299	11.78149	3.2313414	1.0589	1.0531	6.361070	27.77506
300	11.87697	3.2327890	1.0620	1.0561	6.350250	27.71771
301	11.97812	3.2339932	1.0590	1.0531	6.338940	27.65407
302	12.07020	3.2353476	1.0620	1.0562	6.328576	27.59881
303	12.15183	3.2371397	1.0560	1.0502	6.319190	27.55556
304	12.23358	3.2394946	1.0621	1.0562	6.309605	27.51764
305	12.32248	3.2424314	1.0651	1.0593	6.299070	27.48006
306	12.41196	3.2452817	1.0621	1.0563	6.288536	27.44137
307	12.49801	3.2480705	1.0651	1.0593	6.278416	27.40473
308	12.57951	3.2510229	1.0621	1.0563	6.268743	27.37302
309	12.65308	3.2538825	1.0652	1.0593	6.259964	27.34629
310	12.71986	3.2561859	1.0591	1.0533	6.252118	27.31937
311	12.78646	3.2574251	1.0592	1.0533	6.244691	27.28277
312	12.85173	3.2582073	1.0592	1.0534	6.237581	27.24300
313	12.91300	3.2583946	1.0561	1.0503	6.231114	27.20072
314	12.97213	3.2585443	1.0623	1.0564	6.224894	27.15973
315	13.02752	3.2583620	1.0623	1.0564	6.219189	27.11845
316	13.07801	3.2579231	1.0532	1.0474	6.214092	27.07841
317	13.12113	3.2574529	1.0593	1.0535	6.209777	27.04340
318	13.15649	3.2568951	1.0654	1.0596	6.206302	27.01316
319	13.18756	3.2562999	1.0624	1.0565	6.203289	26.98567
320	13.21455	3.2557423	1.0654	1.0596	6.200686	26.96144
321	13.23778	3.2552099	1.0624	1.0566	6.198466	26.94014
322	13.25778	3.2546837	1.0625	1.0566	6.196579	26.92120
323	13.27368	3.2542140	1.0686	1.0627	6.195097	26.90567
324	13.28611	3.2539697	1.0625	1.0567	6.193896	26.89467
325	13.29493	3.2538444	1.0564	1.0506	6.193027	26.88731
326	13.30019	3.2536879	1.0595	1.0537	6.192537	26.88217
327	13.30093	3.2535314	1.0626	1.0567	6.192515	26.88022
328	13.29793	3.2534375	1.0687	1.0628	6.192859	26.88147
329	13.29389	3.2534689	1.0626	1.0567	6.193266	26.88461
330	13.29052	3.2534126	1.0657	1.0598	6.193635	26.88647
331	13.28629	3.2531935	1.0627	1.0568	6.194149	26.88745
332	13.28097	3.2530058	1.0657	1.0599	6.194767	26.88948
333	13.27595	3.2526929	1.0566	1.0508	6.195396	26.89017
334	13.27179	3.2524425	1.0628	1.0569	6.195915	26.89081
335	13.26842	3.2521672	1.0567	1.0509	6.196361	26.89067
336	13.26536	3.2517917	1.0628	1.0569	6.196810	26.88939
337	13.26255	3.2513599	1.0628	1.0570	6.197253	26.88743
338	13.25992	3.2509218	1.0567	1.0509	6.197680	26.88528
339	13.25802	3.2503962	1.0598	1.0540	6.198061	26.88181
340	13.25643	3.2498956	1.0568	1.0510	6.198402	26.87835
341	13.25460	3.2493388	1.0660	1.0601	6.198788	26.87455
342	13.25245	3.2486881	1.0599	1.0541	6.199239	26.87011
343	13.25056	3.2480625	1.0629	1.0571	6.199656	26.86572
344	13.24909	3.2472556	1.0599	1.0541	6.200092	26.85937
345	13.24830	3.2464800	1.0600	1.0542	6.200447	26.85284
346	13.24793	3.2452104	1.0631	1.0572	6.200932	26.84149
347	13.24774	3.2428218	1.0600	1.0542	6.201791	26.81977
348	13.24799	3.2412152	1.0662	1.0603	6.202331	26.80490
349	13.24671	3.2397901	1.0631	1.0573	6.202966	26.79277
350	13.24340	3.2388340	1.0571	1.0512	6.203645	26.78635
351	13.23943	3.2378093	1.0602	1.0543	6.204419	26.77977
352	13.23582	3.2367597	1.0632	1.0573	6.205163	26.77271
353	13.23325	3.2360163	1.0602	1.0544	6.205692	26.76771
354	13.23081	3.2357102	1.0572	1.0513	6.206054	26.76663
355	13.22916	3.2356790	1.0602	1.0544	6.206237	26.76751
356	13.22812	3.2353042	1.0542	1.0484	6.206477	26.76481
357	13.22732	3.2345047	1.0603	1.0545	6.206841	26.75805
358	13.22635	3.2338864	1.0573	1.0515	6.207160	26.75308
359	13.22494	3.2335742	1.0573	1.0515	6.207417	26.75121
360	13.22341	3.2330808	1.0634	1.0575	6.207749	26.74777
361	13.22176	3.2322191	1.0574	1.0516	6.208225	26.74105
362	13.21968	3.2315385	1.0634	1.0576	6.208681	26.73628
363	13.21675	3.2310453	1.0666	1.0607	6.209160	26.73383
364	13.21339	3.2305834	1.0635	1.0577	6.209673	26.73196
365	13.20930	3.2298718	1.0605	1.0547	6.210350	26.72832
366	13.20441	3.2291352	1.0605	1.0547	6.211118	26.72501
367	13.19720	3.2284862	1.0667	1.0608	6.212098	26.72412
368	13.18066	3.2279309	1.0637	1.0578	6.214019	26.73066
369	13.13460	3.2274384	1.0637	1.0578	6.218998	26.75850
370	13.04205	3.2270088	1.0667	1.0609	6.228822	26.81977
371	12.89900	3.2264549	1.0638	1.0579	6.244012	26.91594
372	12.72414	3.2259326	1.0638	1.0579	6.262599	27.03573
373	12.55160	3.2256911	1.0638	1.0580	6.280917	27.15733
374	12.41638	3.2256488	1.0547	1.0489	6.295273	27.25463
375	12.33101	3.2255374	1.0669	1.0610	6.304393	27.31555
376	12.27452	3.2246146	1.0578	1.0520	6.310751	27.34803
377	12.21277	3.2227689	1.0609	1.0550	6.318024	27.37575
378	12.14109	3.2222457	1.0670	1.0611	6.325880	27.42324
379	12.08590	3.2233877	1.0609	1.0551	6.331363	27.47446
380	12.06481	3.2242800	1.0579	1.0521	6.333288	27.49837
381	12.06635	3.2239992	1.0579	1.0521	6.333228	27.49459
382	12.06695	3.2230760	1.0610	1.0552	6.333509	27.48545
383	12.06097	3.2225584	1.0641	1.0582	6.334344	27.48496
384	12.05161	3.2228018	1.0641	1.0582	6.335255	27.49413
385	12.04428	3.2223091	1.0672	1.0613	6.336226	27.49487
386	12.03812	3.2211118	1.0642	1.0583	6.337334	27.48810
387	12.02747	3.2198212	1.0673	1.0614	6.338960	27.48374
388	12.00347	3.2174213	1.0642	1.0584	6.342437	27.47874
389	11.96247	3.2136515	1.0643	1.0584	6.348260	27.47327
390	11.90661	3.2092671	1.0673	1.0615	6.355928	27.47291
391	11.84446	3.2041941	1.0674	1.0615	6.364552	27.47063
392	11.78631	3.2014134	1.0674	1.0615	6.371898	27.48715
393	11.73974	3.2010903	1.0644	1.0585	6.377067	27.51848
394	11.70935	3.2018994	1.0614	1.0556	6.380055	27.54867
395	11.69628	3.2033680	1.0614	1.0556	6.380914	27.57233
396	11.69657	3.2053533	1.0645	1.0587	6.380126	27.59101
397	11.70671	3.2078619	1.0706	1.0647	6.378071	27.60736
398	11.72179	3.2098232	1.0646	1.0587	6.375692	27.61483
399	11.73199	3.2113552	1.0676	1.0617	6.374004	27.62183
400	11.73287	3.2123955	1.0615	1.0557	6.373513	27.63107
401	11.72842	3.2131306	1.0646	1.0588	6.373716	27.64137
402	11.72443	3.2134671	1.0708	1.0649	6.374020	27.64754
403	11.72413	3.2136228	1.0708	1.0649	6.373993	27.64924
404	11.72777	3.2132552	1.0648	1.0589	6.373739	27.64304
405	11.73540	3.2124889	1.0648	1.0590	6.373205	27.63008
406	11.74590	3.2111682	1.0648	1.0590	6.372570	27.60973
407	11.75835	3.2102899	1.0618	1.0560	6.371556	27.59215
408	11.77056	3.2093619	1.0649	1.0590	6.370587	27.57428
409	11.77920	3.2083219	1.0679	1.0621	6.370048	27.55800
410	11.78208	3.2071265	1.0649	1.0591	6.370190	27.54452
411	11.77802	3.2060869	1.0619	1.0561	6.371022	27.53765
412	11.76751	3.2049542	1.0650	1.0592	6.372591	27.53466
413	11.75224	3.2035790	1.0651	1.0592	6.374766	27.53289
414	11.73211	3.2024218	1.0621	1.0562	6.377388	27.53679
415	11.70976	3.2016568	1.0590	1.0532	6.380103	27.54606
416	11.68837	3.2008918	1.0591	1.0533	6.382717	27.55463
417	11.66827	3.1995235	1.0652	1.0593	6.385421	27.55649
418	11.64719	3.1972351	1.0683	1.0624	6.388586	27.55032
419	11.62092	3.1952023	1.0591	1.0533	6.392222	27.55044
420	11.59051	3.1942204	1.0653	1.0594	6.395909	27.56364
421	11.56223	3.1942207	1.0623	1.0565	6.398991	27.58465
422	11.54139	3.1933383	1.0593	1.0535	6.401603	27.59173
423	11.52499	3.1907161	1.0654	1.0596	6.404401	27.57887
424	11.50428	3.1873431	1.0624	1.0565	6.407960	27.56202
425	11.47537	3.1860082	1.0655	1.0596	6.411636	27.57076
426	11.44712	3.1872878	1.0685	1.0627	6.414235	27.60404
427	11.43076	3.1888781	1.0655	1.0597	6.415411	27.63147
428	11.42669	3.1887725	1.0625	1.0567	6.415898	27.63350
429	11.42669	3.1863130	1.0565	1.0507	6.416848	27.60994
430	11.42081	3.1837921	1.0687	1.0628	6.418467	27.59017
431	11.40621	3.1840034	1.0627	1.0568	6.419985	27.60308
432	11.39260	3.1869530	1.0626	1.0568	6.420336	27.64151
433	11.38917	3.1894438	1.0627	1.0569	6.419747	27.66797
434	11.39423	3.1898973	1.0627	1.0569	6.419018	27.66853
435	11.40092	3.1898724	1.0719	1.0660	6.418295	27.66329
436	11.40656	3.1903259	1.0628	1.0570	6.417502	27.66343
437	11.41150	3.1908104	1.0598	1.0540	6.416773	27.66438
438	11.41627	3.1905059	1.0629	1.0571	6.416368	27.65789
439	11.42069	3.1903257	1.0721	1.0662	6.415954	27.65286
440	11.42442	3.1917237	1.0599	1.0541	6.415006	27.66348
441	11.42814	3.1939486	1.0660	1.0602	6.413739	27.68202
442	11.43029	3.1954405	1.0570	1.0512	6.412927	27.69471
443	11.43018	3.1956519	1.0601	1.0543	6.412858	27.69682
444	11.43198	3.1953783	1.0601	1.0543	6.412767	27.69285
445	11.43751	3.1956829	1.0662	1.0604	6.412044	27.69163
446	11.44514	3.1966900	1.0632	1.0573	6.410822	27.69558
447	11.45294	3.1974486	1.0632	1.0574	6.409677	27.69701
448	11.46121	3.1975107	1.0603	1.0544	6.408749	27.69142
449	11.47088	3.1968390	1.0542	1.0484	6.407952	27.67776
450	11.48195	3.1962917	1.0634	1.0575	6.406954	27.66425
451	11.49332	3.1967206	1.0665	1.0606	6.405548	27.65987
452	11.50422	3.1970501	1.0634	1.0576	6.404231	27.65489
453	11.51449	3.1968448	1.0696	1.0637	6.403190	27.64527
454	11.52470	3.1964405	1.0696	1.0637	6.402232	27.63379
455	11.53427	3.1968384	1.0696	1.0638	6.401035	27.63047
456	11.54337	3.1972984	1.0666	1.0607	6.399866	27.62808
457	11.55260	3.1970496	1.0697	1.0639	6.398956	27.61883
458	11.56182	3.1967199	1.0697	1.0639	6.398077	27.60882
459	11.57070	3.1971737	1.0668	1.0609	6.396935	27.60655
460	11.57958	3.1979385	1.0698	1.0640	6.395675	27.60724
461	11.58922	3.1981810	1.0669	1.0610	6.394532	27.60239
462	11.60004	3.1978761	1.0608	1.0550	6.393471	27.59144
463	11.61191	3.1977765	1.0578	1.0520	6.392217	27.58167
464	11.62413	3.1982739	1.0609	1.0550	6.390697	27.57734
465	11.63712	3.1990947	1.0640	1.0581	6.388970	27.57552
466	11.65269	3.1997974	1.0671	1.0612	6.387009	27.57066
467	11.67507	3.2001641	1.0579	1.0521	6.384438	27.55756
468	11.70507	3.2001949	1.0549	1.0491	6.381169	27.53562
469	11.73751	3.2001635	1.0550	1.0492	6.377661	27.51132
470	11.76851	3.2002191	1.0550	1.0493	6.374280	27.48895
471	11.79730	3.2000695	1.0642	1.0584	6.371217	27.46628
472	11.82352	3.1990616	1.0551	1.0493	6.368760	27.43740
473	11.84441	3.1966797	1.0552	1.0494	6.367400	27.39946
474	11.85429	3.1946404	1.0613	1.0555	6.367100	27.37287
475	11.85200	3.1935464	1.0613	1.0555	6.367762	27.36419
476	11.84311	3.1928753	1.0644	1.0586	6.368979	27.36435
477	11.83346	3.1924528	1.0584	1.0526	6.370184	27.36744
478	11.82434	3.1920241	1.0675	1.0617	6.371334	27.37007
479	11.81529	3.1916575	1.0646	1.0587	6.372455	27.37325
480	11.80570	3.1912662	1.0646	1.0587	6.373643	27.37658
481	11.79500	3.1894086	1.0677	1.0618	6.375507	27.36682
482	11.77385	3.1866634	1.0677	1.0618	6.378845	27.35631
483	11.72325	3.1828827	1.0617	1.0559	6.385783	27.35760
484	11.64901	3.1790605	1.0617	1.0559	6.395331	27.37590
485	11.57906	3.1761579	1.0679	1.0620	6.404082	27.39982
486	11.52662	3.1734980	1.0648	1.0590	6.410841	27.41317
487	11.48906	3.1714711	1.0679	1.0621	6.415738	27.42158
488	11.45836	3.1701697	1.0619	1.0560	6.419609	27.43187
489	11.42983	3.1683914	1.0619	1.0561	6.423429	27.43598
490	11.40237	3.1657956	1.0680	1.0622	6.427452	27.43148
491	11.37458	3.1627548	1.0650	1.0592	6.431688	27.42294
492	11.35129	3.1612814	1.0621	1.0562	6.434827	27.42609
493	11.33398	3.1629039	1.0591	1.0532	6.436104	27.45449
494	11.32435	3.1648858	1.0591	1.0533	6.436396	27.48067
495	11.32214	3.1636905	1.0531	1.0473	6.437104	27.47084
496	11.32029	3.1600497	1.0592	1.0534	6.438724	27.43727
497	11.31007	3.1579391	1.0623	1.0564	6.440672	27.42459
498	11.29355	3.1593567	1.0593	1.0535	6.441945	27.45047
499	11.28415	3.1628177	1.0684	1.0625	6.441635	27.49070
500	11.28670	3.1639634	1.0624	1.0566	6.440907	27.49981
501	11.29227	3.1622169	1.0594	1.0536	6.440973	27.47889
502	11.29355	3.1604957	1.0655	1.0597	6.441502	27.46141
503	11.29001	3.1629353	1.0656	1.0597	6.440943	27.48747
504	11.28914	3.1671102	1.0626	1.0568	6.439414	27.52823
505	11.29134	3.1696012	1.0627	1.0569	6.438201	27.55052
506	11.28954	3.1695393	1.0688	1.0630	6.438423	27.55127
507	11.28705	3.1685168	1.0657	1.0599	6.439096	27.54330
508	11.28821	3.1686345	1.0719	1.0660	6.438923	27.54357
509	11.29181	3.1699297	1.0689	1.0630	6.438022	27.55333
510	11.29569	3.1706486	1.0689	1.0630	6.437314	27.55734
511	11.29795	3.1703573	1.0690	1.0631	6.437178	27.55286
512	11.30050	3.1696631	1.0690	1.0631	6.437167	27.54428
513	11.30468	3.1696941	1.0660	1.0601	6.436695	27.54147
514	11.30961	3.1705679	1.0631	1.0572	6.435812	27.54619
515	11.31385	3.1715349	1.0692	1.0633	6.434970	27.55232
516	11.31588	3.1717952	1.0631	1.0573	6.434645	27.55331
517	11.31599	3.1712311	1.0663	1.0604	6.434851	27.54780
518	11.31721	3.1705988	1.0693	1.0634	6.434963	27.54082
519	11.32156	3.1705678	1.0694	1.0635	6.434496	27.53728
520	11.32673	3.1713798	1.0634	1.0575	6.433611	27.54123
521	11.33091	3.1720740	1.0634	1.0575	6.432882	27.54478
522	11.33340	3.1720864	1.0665	1.0606	6.432602	27.54304
523	11.33584	3.1718074	1.0665	1.0607	6.432442	27.53855
524	11.33932	3.1718074	1.0665	1.0606	6.432059	27.53595
525	11.34426	3.1725327	1.0666	1.0607	6.431234	27.53924
526	11.34896	3.1731650	1.0698	1.0639	6.430471	27.54180
527	11.35454	3.1732270	1.0667	1.0608	6.429834	27.53824
528	11.36267	3.1726875	1.0698	1.0639	6.429149	27.52701
529	11.37237	3.1723154	1.0668	1.0610	6.428226	27.51623
530	11.38185	3.1725323	1.0668	1.0610	6.427100	27.51126
531	11.39097	3.1730716	1.0699	1.0641	6.425888	27.50965
532	11.40028	3.1733443	1.0730	1.0671	6.424761	27.50534
533	11.40999	3.1728916	1.0640	1.0582	6.423869	27.49379
534	11.41965	3.1716020	1.0671	1.0612	6.423307	27.47427
535	11.42709	3.1706535	1.0610	1.0552	6.422855	27.45967
536	11.43152	3.1703249	1.0641	1.0582	6.422496	27.45324
537	11.43384	3.1700212	1.0702	1.0644	6.422358	27.44861
538	11.43431	3.1695378	1.0672	1.0614	6.422493	27.44363
539	11.43297	3.1689676	1.0672	1.0614	6.422861	27.43917
540	11.42925	3.1542439	1.0643	1.0584	6.428961	27.30104
541	11.38859	3.1034949	1.0674	1.0615	6.453107	26.84560
542	11.28015	3.0947519	1.0644	1.0585	6.468600	26.84067
543	11.15701	3.0948330	1.0705	1.0646	6.482353	26.93114
544	11.05932	3.0951963	1.0675	1.0616	6.493174	27.00613
545	10.99944	3.0947547	1.0645	1.0587	6.500082	27.04585
546	10.96614	3.0952095	1.0707	1.0648	6.503651	27.07475
547	10.94833	3.0945219	1.0737	1.0678	6.505930	27.08123
548	10.93781	3.0942272	1.0708	1.0649	6.507232	27.08613
549	10.93052	3.0939079	1.0738	1.0679	6.508181	27.08841
550	10.92570	3.0940799	1.0800	1.0740	6.508657	27.09363
551	10.92351	3.0940615	1.0770	1.0711	6.508910	27.09507
552	10.92306	3.0940185	1.0740	1.0681	6.508979	27.09499
553	10.92357	3.0937545	1.0740	1.0681	6.509025	27.09205
554	10.92420	3.0939694	1.0680	1.0621	6.508869	27.09367
555	10.92369	3.0938711	1.0681	1.0622	6.508966	27.09310
556	10.92208	3.0939633	1.0681	1.0622	6.509111	27.09518
557	10.92151	3.0940615	1.0681	1.0623	6.509136	27.09655
558	10.92196	3.0939633	1.0743	1.0684	6.509124	27.09526
559	10.92265	3.0932571	1.0682	1.0624	6.509327	27.08792
560	10.92110	3.0936255	1.0714	1.0655	6.509355	27.09263
561	10.91944	3.0936992	1.0714	1.0655	6.509514	27.09457
562	10.91996	3.0934045	1.0654	1.0595	6.509572	27.09134
563	10.92128	3.0933185	1.0684	1.0626	6.509458	27.08953
564	10.92151	3.0922563	1.0716	1.0657	6.509854	27.07909
565	10.92076	3.0924159	1.0685	1.0626	6.509874	27.08118
566	10.92030	3.0925817	1.0686	1.0627	6.509860	27.08313
567	10.92053	3.0930483	1.0747	1.0688	6.509649	27.08747
568	10.91996	3.0930054	1.0718	1.0659	6.509731	27.08748
569	10.91846	3.0929317	1.0688	1.0629	6.509928	27.08787
570	10.91691	3.0927843	1.0719	1.0660	6.510162	27.08758
571	10.91663	3.0925449	1.0780	1.0721	6.510290	27.08547
572	10.91760	3.0926677	1.0720	1.0661	6.510131	27.08595
573	10.91921	3.0924036	1.0690	1.0631	6.510054	27.08221
574	10.91967	3.0921396	1.0660	1.0601	6.510107	27.07932
575	10.92036	3.0920844	1.0660	1.0602	6.510051	27.07827
576	10.92036	3.0920782	1.0722	1.0663	6.510054	27.07821
577	10.92093	3.0919677	1.0722	1.0663	6.510033	27.07672
578	10.92185	3.0917897	1.0753	1.0694	6.510000	27.07432
579	10.92329	3.0909916	1.0754	1.0694	6.510155	27.06554
580	10.92449	3.0908811	1.0754	1.0695	6.510063	27.06359
581	10.92461	3.0907337	1.0693	1.0635	6.510109	27.06208
582	10.92512	3.0903102	1.0725	1.0666	6.510219	27.05760
583	10.92765	3.0904391	1.0695	1.0637	6.509882	27.05699
584	10.92989	3.0909056	1.0665	1.0606	6.509444	27.05985
585	10.93092	3.0911818	1.0665	1.0606	6.509218	27.06176
586	10.93035	3.0911143	1.0727	1.0668	6.509310	27.06153
587	10.92914	3.0905618	1.0758	1.0699	6.509665	27.05707
588	10.92977	3.0902610	1.0759	1.0700	6.509713	27.05370
589	10.93178	3.0902917	1.0699	1.0640	6.509474	27.05252
590	10.93276	3.0903408	1.0699	1.0640	6.509345	27.05227
591	10.93282	3.0904697	1.0730	1.0671	6.509287	27.05348
592	10.93265	3.0907030	1.0761	1.0702	6.509214	27.05586
593	10.93150	3.0907152	1.0701	1.0642	6.509338	27.05682
594	10.93052	3.0912616	1.0670	1.0612	6.509232	27.06283
595	10.92926	3.0906539	1.0671	1.0613	6.509615	27.05788
596	10.92776	3.0908196	1.0793	1.0734	6.509718	27.06058
597	10.93132	3.0882111	1.0763	1.0704	6.510352	27.03274
598	10.94574	3.0881128	1.0764	1.0705	6.508764	27.02118
599	10.95775	3.0887938	1.0825	1.0766	6.507140	27.01893
600	10.96097	3.0899968	1.0795	1.0736	6.506300	27.02819
601	10.95298	3.0904634	1.0826	1.0767	6.507016	27.03857
602	10.94574	3.0904389	1.0766	1.0707	6.507842	27.04366
603	10.94120	3.0907643	1.0737	1.0678	6.508224	27.05015
604	10.93902	3.0898497	1.0737	1.0678	6.508833	27.04292
605	10.94023	3.0896471	1.0737	1.0678	6.508778	27.04007
606	10.94528	3.0901565	1.0799	1.0740	6.508005	27.04127
607	10.94976	3.0907887	1.0738	1.0679	6.507249	27.04409
608	10.95746	3.0910281	1.0739	1.0680	6.506286	27.04073
609	10.96821	3.0895671	1.0709	1.0650	6.505654	27.01872
610	10.97316	3.0883580	1.0710	1.0651	6.505575	27.00341
611	10.98299	3.0877381	1.0740	1.0681	6.504712	26.99020
612	10.99794	3.0868114	1.0710	1.0652	6.503393	26.97029
613	11.01216	3.0860689	1.0681	1.0622	6.502085	26.95271
614	11.02119	3.0856700	1.0742	1.0683	6.501225	26.94224
615	11.02822	3.0853939	1.0773	1.0714	6.500543	26.93443
616	11.03449	3.0859521	1.0804	1.0745	6.499615	26.93522
617	11.03587	3.0871546	1.0714	1.0655	6.498985	26.94580
618	11.03495	3.0830569	1.0714	1.0655	6.500707	26.90698
619	11.04791	3.0823209	1.0745	1.0686	6.499537	26.89042
620	11.06186	3.0840931	1.0715	1.0656	6.497268	26.89730
621	11.06093	3.0851298	1.0746	1.0687	6.496963	26.90796
622	11.05460	3.0827623	1.0747	1.0688	6.498610	26.88979
623	11.06013	3.0814132	1.0686	1.0628	6.498519	26.87276
624	11.07073	3.0814438	1.0687	1.0628	6.497313	26.86531
625	11.07846	3.0824248	1.0778	1.0719	6.496057	26.86912
626	11.08290	3.0854547	1.0749	1.0690	6.494363	26.89505
627	11.07690	3.0864425	1.0718	1.0660	6.494648	26.90894
628	11.06652	3.0859518	1.0750	1.0691	6.496009	26.91179
629	11.05373	3.0864795	1.0751	1.0692	6.497241	26.92623
630	11.03927	3.0864735	1.0752	1.0693	6.498871	26.93675
631	11.03248	3.0851607	1.0691	1.0632	6.500155	26.92907
632	11.03530	3.0860380	1.0721	1.0663	6.499491	26.93546
633	11.03806	3.0863815	1.0722	1.0663	6.499044	26.93675
634	11.03818	3.0868601	1.0722	1.0664	6.498842	26.94128
635	11.03524	3.0871546	1.0753	1.0694	6.499056	26.94627
636	11.03138	3.0875044	1.0663	1.0605	6.499352	26.95247
637	11.02862	3.0880015	1.0724	1.0665	6.499467	26.95928
638	11.02632	3.0876824	1.0725	1.0666	6.499853	26.95789
639	11.02545	3.0879463	1.0726	1.0667	6.499846	26.96107
640	11.02493	3.0880322	1.0726	1.0667	6.499870	26.96228
641	11.02516	3.0878358	1.0787	1.0728	6.499922	26.96021
642	11.02574	3.0877131	1.0727	1.0669	6.499905	26.95861
643	11.02816	3.0874308	1.0758	1.0699	6.499745	26.95412
644	11.03225	3.0869767	1.0728	1.0670	6.499464	26.94675
645	11.03518	3.0882408	1.0790	1.0731	6.498634	26.95678
646	11.03409	3.0887010	1.0729	1.0671	6.498575	26.96202
647	11.03161	3.0876517	1.0669	1.0611	6.499268	26.95372
648	11.03248	3.0863018	1.0761	1.0702	6.499704	26.94007
649	11.03570	3.0865656	1.0762	1.0703	6.499237	26.94025
650	11.03743	3.0868908	1.0702	1.0643	6.498914	26.94212
651	11.03657	3.0870933	1.0702	1.0643	6.498931	26.94471
652	11.03311	3.0857742	1.0794	1.0735	6.499841	26.93452
653	11.03524	3.0856024	1.0733	1.0674	6.499669	26.93130
654	11.04014	3.0855778	1.0765	1.0705	6.499128	26.92748
655	11.04181	3.0862465	1.0765	1.0705	6.498675	26.93271
656	11.03645	3.0870380	1.0705	1.0646	6.498966	26.94426
657	11.02948	3.0863509	1.0706	1.0647	6.500022	26.94274
658	11.02781	3.0863325	1.0706	1.0647	6.500217	26.94378
659	11.03196	3.0865350	1.0767	1.0708	6.499671	26.94270
660	11.03599	3.0865656	1.0738	1.0679	6.499204	26.94004
661	11.03685	3.0866269	1.0708	1.0649	6.499083	26.94000
662	11.03357	3.0868724	1.0678	1.0619	6.499356	26.94477
663	11.02977	3.0867743	1.0709	1.0650	6.499822	26.94661
664	11.02839	3.0867743	1.0770	1.0711	6.499978	26.94762
665	11.02948	3.0864736	1.0740	1.0681	6.499974	26.94392
666	11.02862	3.0863939	1.0741	1.0682	6.500102	26.94378
667	11.02695	3.0861669	1.0802	1.0743	6.500380	26.94281
668	11.02793	3.0858663	1.0772	1.0713	6.500389	26.93920
669	11.02977	3.0858049	1.0743	1.0684	6.500205	26.93726
670	11.03069	3.0857313	1.0713	1.0654	6.500131	26.93588
671	11.03207	3.0855104	1.0713	1.0654	6.500062	26.93274
672	11.03461	3.0853938	1.0775	1.0716	6.499823	26.92976
673	11.03582	3.0852343	1.0744	1.0685	6.499750	26.92734
674	11.03743	3.0849583	1.0776	1.0717	6.499677	26.92349
675	11.03991	3.0845534	1.0807	1.0748	6.499558	26.91778
676	11.04463	3.0840504	1.0777	1.0718	6.499225	26.90948
677	11.04889	3.0833144	1.0748	1.0689	6.499035	26.89927
678	11.05413	3.0829831	1.0687	1.0628	6.498575	26.89225
679	11.06128	3.0821736	1.0748	1.0689	6.498090	26.87924
680	11.07067	3.0817749	1.0749	1.0690	6.497189	26.86854
681	11.07851	3.0823512	1.0811	1.0751	6.496079	26.86837
682	11.08278	3.0824677	1.0750	1.0691	6.495553	26.86638
683	11.08503	3.0834121	1.0781	1.0722	6.494928	26.87383
684	11.08313	3.0834060	1.0843	1.0783	6.495144	26.87515
685	11.07955	3.0828786	1.1208	1.1147	6.495755	26.87267
686	11.07794	3.0823636	1.2152	1.2086	6.496141	26.86886
687	11.07794	3.0827622	1.3340	1.3267	6.495986	26.87265
688	11.07892	3.0830750	1.4709	1.4629	6.495754	26.87490
689	11.08042	3.0830811	1.6049	1.5961	6.495585	26.87382
690	11.08255	3.0827623	1.7541	1.7445	6.495473	26.86914
691	11.08353	3.0821184	1.9458	1.9351	6.495619	26.86216
692	11.08584	3.0812110	2.1498	2.1379	6.495720	26.85167
693	11.09783	3.0801380	2.3812	2.3681	6.494795	26.83252
694	11.11070	3.0813580	2.6033	2.5890	6.492870	26.83481
695	11.12334	3.0726559	2.8225	2.8070	6.494873	26.74188
696	11.14961	3.0869025	3.0447	3.0280	6.486324	26.85961
697	11.12213	3.0931391	3.2699	3.2519	6.486963	26.93955
698	11.06151	3.0978692	3.4921	3.4729	6.491910	27.02941
699	11.00629	3.1059961	3.7083	3.6879	6.494906	27.14838
700	10.95453	3.1087770	3.9335	3.9119	6.499622	27.21343
701	10.91663	3.1141623	4.1649	4.1420	6.501748	27.29357
702	10.89046	3.1150738	4.3932	4.3690	6.504330	27.32178
703	10.87497	3.1162931	4.6306	4.6051	6.505590	27.34504
704	10.86752	3.1165889	4.8650	4.8382	6.506314	27.35338
705	10.86333	3.1191388	5.0902	5.0622	6.505772	27.38114
706	10.85789	3.1249251	5.3337	5.3043	6.504083	27.44126
707	10.85067	3.1262938	5.5681	5.5374	6.504352	27.45986
708	10.84356	3.1295930	5.8085	5.7765	6.503839	27.49712
709	10.83543	3.1304012	6.0581	6.0247	6.504434	27.51097
710	10.82890	3.1318880	6.3047	6.2700	6.504577	27.53022
711	10.82397	3.1338194	6.5269	6.4909	6.504363	27.55260
712	10.81962	3.1349921	6.7856	6.7483	6.504387	27.56717
713	10.81601	3.1367143	7.0413	7.0025	6.504109	27.58653
714	10.81252	3.1403882	7.3061	7.2658	6.503038	27.62477
715	10.80914	3.1428652	7.5496	7.5080	6.502431	27.65131
716	10.80777	3.1439773	7.7992	7.7562	6.502145	27.66307
717	10.80817	3.1452070	8.0336	7.9893	6.501613	27.67464
718	10.81052	3.1481675	8.2863	8.2406	6.500172	27.70157
719	10.81670	3.1497811	8.5328	8.4858	6.498840	27.71250
720	10.82277	3.1566840	8.7976	8.7491	6.495411	27.77494
721	10.82655	3.1633636	9.0502	9.0003	6.492330	27.83696
722	10.81338	3.1627321	9.3028	9.2515	6.494055	27.84072
723	10.77132	3.1602931	9.5464	9.4937	6.499732	27.84883
724	10.72269	3.1567472	9.7990	9.7449	6.506598	27.85115
725	10.67452	3.1567478	10.0547	9.9992	6.512001	27.88774
726	10.63438	3.1564141	10.3043	10.2475	6.516642	27.91500
727	10.60255	3.1521832	10.5599	10.5017	6.521928	27.89784
728	10.55151	3.1470892	10.8217	10.7620	6.529735	27.88684
729	10.47217	3.1434998	11.0744	11.0132	6.540145	27.91222
730	10.38252	3.1426668	11.3271	11.2645	6.550628	27.97268
731	10.29834	3.1386842	11.5827	11.5187	6.561807	27.99810
732	10.19585	3.1350555	11.8323	11.7670	6.574956	28.04121
733	10.06574	3.1341003	12.0941	12.0273	6.590200	28.13243
734	9.92868	3.1338303	12.3346	12.2664	6.606005	28.23640
735	9.81960	3.1338376	12.5902	12.5206	6.618529	28.32180
736	9.75044	3.1341346	12.8459	12.7749	6.626364	28.37904
737	9.70898	3.1350608	13.0864	13.0140	6.630751	28.42090
738	9.65524	3.1332101	13.3512	13.2774	6.637737	28.44468
739	9.55806	3.1322610	13.6039	13.5287	6.649375	28.51201
740	9.44687	3.1313368	13.8564	13.7798	6.662658	28.59105
741	9.35517	3.1310108	14.1091	14.0311	6.673454	28.66090
742	9.28733	3.1305428	14.3648	14.2854	6.681556	28.71043
743	9.23334	3.1298217	14.6144	14.5336	6.688165	28.74640
744	9.17960	3.1294029	14.8700	14.7878	6.694625	28.78532
745	9.13551	3.1291074	15.1105	15.0269	6.699911	28.81779
746	9.10664	3.1287871	15.3662	15.2812	6.703432	28.83776
747	9.08885	3.1285407	15.6189	15.5325	6.705627	28.84954
748	9.07790	3.1278317	15.8654	15.7777	6.707223	28.85107
749	9.06111	3.1276778	16.1119	16.0228	6.709262	28.86300
750	9.02749	3.1276227	16.3524	16.2619	6.713231	28.88959
751	8.98679	3.1271730	16.6051	16.5132	6.718208	28.91793
752	8.93453	3.1262242	16.8638	16.7705	6.724770	28.95062
753	8.87128	3.1258057	17.1195	17.0248	6.732400	28.99778
754	8.81210	3.1255721	17.3721	17.2760	6.739481	29.04365
755	8.76338	3.1253384	17.6491	17.5514	6.745338	29.08105
756	8.72844	3.1250676	17.9109	17.8117	6.749590	29.10683
757	8.69786	3.1246796	18.1453	18.0448	6.753382	29.12786
758	8.67142	3.1244765	18.3766	18.2749	6.756604	29.14742
759	8.65177	3.1241810	18.6171	18.5139	6.759066	29.16046
760	8.63559	3.1239901	18.8545	18.7500	6.761072	29.17172
761	8.62012	3.1237315	19.0859	18.9801	6.763025	29.18172
762	8.60270	3.1235530	19.3202	19.2132	6.765173	29.19414
763	8.58341	3.1234978	19.5516	19.4433	6.767490	29.20941
764	8.56320	3.1232700	19.7981	19.6884	6.769993	29.22365
765	8.54139	3.1230546	20.0295	19.9185	6.772684	29.23937
766	8.52277	3.1228145	20.2517	20.1394	6.775007	29.25220
767	8.50659	3.1219890	20.4891	20.3755	6.777306	29.25696
768	8.48653	3.1217490	20.7266	20.6117	6.779803	29.27099
769	8.46783	3.1218047	20.9639	20.8477	6.782006	29.28698
770	8.45490	3.1218357	21.1983	21.0808	6.783535	29.29794
771	8.44661	3.1219221	21.4327	21.3139	6.784487	29.30563
772	8.44101	3.1219530	21.6640	21.5438	6.785144	29.31051
773	8.43702	3.1218053	21.8954	21.7740	6.785689	29.31219
774	8.42906	3.1189837	22.1267	22.0040	6.787919	29.28941
775	8.38924	3.1163236	22.3581	22.2341	6.793876	29.29476
776	8.31983	3.1164722	22.5865	22.4611	6.802101	29.35399
777	8.25563	3.1190781	22.8269	22.7003	6.808592	29.43469
778	8.18821	3.1197688	23.0612	22.9333	6.816351	29.49832
779	8.11434	3.1200284	23.2927	23.1634	6.825092	29.56307
780	8.05516	3.1200044	23.5300	23.3994	6.832213	29.61265
781	8.01551	3.1195490	23.7492	23.6174	6.837195	29.64130
782	7.98377	3.1194077	23.9805	23.8474	6.841084	29.66659
783	7.95264	3.1192048	24.2210	24.0866	6.844930	29.69075
784	7.92377	3.1189588	24.4463	24.3106	6.848528	29.71258
785	7.90018	3.1186388	24.6776	24.5406	6.851526	29.72915
786	7.87867	3.1184912	24.9090	24.7707	6.854194	29.74580
787	7.85235	3.1181959	25.1403	25.0007	6.857514	29.76500
788	7.82535	3.1178329	25.3747	25.2338	6.860950	29.78408
789	7.79382	3.1169834	25.5999	25.4577	6.865165	29.80191
790	7.73982	3.1163620	25.8252	25.6817	6.871997	29.84141
791	7.67775	3.1161780	26.0596	25.9148	6.879611	29.89254
792	7.63482	3.1160368	26.2848	26.1388	6.884892	29.92782
793	7.60982	3.1159202	26.5132	26.3658	6.887989	29.94799
794	7.59447	3.1157110	26.7415	26.5929	6.889957	29.95888
795	7.58383	3.1156496	26.9729	26.8230	6.891285	29.96730
796	7.57708	3.1155636	27.1981	27.0469	6.892150	29.97209
797	7.57271	3.1155329	27.4264	27.2739	6.892701	29.97544
798	7.57007	3.1154283	27.6669	27.5130	6.893076	29.97649
799	7.56818	3.1153546	27.9408	27.7855	6.893347	29.97722
800	7.56623	3.1153239	28.1600	28.0034	6.893603	29.97848
801	7.56154	3.1151146	28.3792	28.2213	6.894277	29.98020
802	7.55490	3.1149978	28.6166	28.4574	6.895144	29.98458
803	7.54458	3.1143515	28.8359	28.6755	6.896711	29.98651
804	7.51048	3.1134901	29.0549	28.8933	6.901278	30.00668
805	7.46242	3.1131952	29.2833	29.1204	6.907282	30.04498
806	7.42460	3.1129002	29.5025	29.3383	6.912042	30.07450
807	7.38939	3.1122112	29.7186	29.5532	6.916678	30.09758
808	7.34426	3.1115101	29.9468	29.7802	6.922538	30.12920
809	7.28368	3.1111293	30.1813	30.0133	6.930143	30.17777
810	7.22340	3.1108099	30.4126	30.2433	6.937694	30.22687
811	7.16504	3.1102999	30.6348	30.4642	6.945112	30.27237
812	7.11301	3.1101282	30.8601	30.6883	6.951598	30.31607
813	7.07375	3.1100363	31.0854	30.9123	6.956481	30.34950
814	7.04524	3.1101905	31.3016	31.1273	6.959923	30.37618
815	7.02698	3.1099815	31.5298	31.3542	6.962279	30.38991
816	7.01425	3.1099817	31.7642	31.5873	6.963854	30.40104
817	7.00463	3.1097850	31.9834	31.8052	6.965141	30.40730
818	6.99523	3.1095637	32.2056	32.0262	6.966414	30.41311
819	6.98453	3.1093300	32.4341	32.2533	6.967853	30.41993
820	6.97404	3.1092256	32.6683	32.4863	6.969204	30.42796
821	6.96444	3.1094781	32.8967	32.7134	6.970271	30.43908
822	6.95156	3.1105427	33.1189	32.9343	6.971343	30.46190
823	6.92547	3.1105000	33.3441	33.1583	6.974592	30.48445
824	6.89768	3.1105126	33.5724	33.3853	6.978025	30.50912
825	6.87312	3.1105437	33.7947	33.6063	6.981052	30.53116
826	6.84858	3.1100641	34.0199	33.8302	6.984330	30.54766
827	6.82477	3.1094799	34.2513	34.0604	6.987571	30.56238
828	6.80124	3.1095971	34.4796	34.2873	6.990434	30.58450
829	6.78020	3.1095666	34.6988	34.5052	6.993061	30.60282
830	6.75783	3.1093638	34.9240	34.7292	6.995941	30.62047
831	6.73593	3.1095672	35.1462	34.9502	6.998562	30.64214
832	6.71534	3.1094444	35.3685	35.1712	7.001184	30.65911
833	6.69393	3.1090078	35.5846	35.3861	7.004065	30.67340
834	6.67053	3.1083314	35.8130	35.6132	7.007316	30.68687
835	6.63719	3.1079504	36.0353	35.8342	7.011657	30.71249
836	6.60291	3.1077724	36.2634	36.0611	7.016019	30.74122
837	6.57837	3.1076251	36.4797	36.2761	7.019154	30.76156
838	6.56258	3.1073854	36.7079	36.5030	7.021247	30.77303
839	6.55081	3.1069858	36.9393	36.7331	7.022919	30.77914
840	6.53247	3.1063218	37.1585	36.9510	7.025545	30.78829
841	6.50828	3.1060269	37.3869	37.1781	7.028718	30.80675
842	6.48364	3.1059596	37.6181	37.4080	7.031833	30.82813
843	6.46338	3.1057323	37.8921	37.6805	7.034486	30.84381
844	6.44717	3.1055849	38.1235	37.9106	7.036591	30.85673
845	6.43559	3.1054929	38.3396	38.1254	7.038090	30.86609
846	6.42734	3.1058251	38.5710	38.3555	7.038960	30.87710
847	6.42022	3.1059729	38.7902	38.5734	7.039781	30.88507
848	6.41309	3.1058315	39.0124	38.7944	7.040748	30.88986
849	6.40551	3.1057948	39.2437	39.0244	7.041720	30.89622
850	6.39660	3.1056166	39.4568	39.2363	7.042930	30.90223
851	6.38677	3.1047743	39.6791	39.4573	7.044591	30.90177
852	6.36656	3.1047069	39.8983	39.6753	7.047163	30.91925
853	6.32728	3.1046766	40.1205	39.8962	7.052106	30.95448
854	6.28298	3.1049662	40.3459	40.1203	7.057522	30.99787
855	6.24388	3.1052372	40.5680	40.3412	7.062299	31.03640
856	6.21349	3.1051761	40.7841	40.5561	7.066155	31.06338
857	6.18861	3.1050595	41.0125	40.7831	7.069347	31.08472
858	6.16732	3.1049430	41.2377	41.0071	7.072090	31.10281
859	6.14889	3.1045005	41.4539	41.2221	7.074642	31.11468
860	6.13352	3.1043716	41.6731	41.4400	7.076648	31.12724
861	6.12207	3.1042918	41.8923	41.6579	7.078136	31.13675
862	6.11404	3.1042367	42.1146	41.8790	7.079182	31.14340
863	6.10870	3.1041876	42.3338	42.0969	7.079885	31.14766
864	6.10468	3.1040278	42.5407	42.3027	7.080478	31.14947
865	6.10036	3.1034684	42.7660	42.5267	7.081315	31.14713
866	6.09258	3.1030075	42.9914	42.7507	7.082537	31.14904
867	6.08129	3.1035610	43.2074	42.9656	7.083681	31.16545
868	6.07311	3.1045879	43.4358	43.1927	7.084189	31.18427
869	6.07128	3.1057749	43.6550	43.4106	7.083814	31.19904
870	6.07377	3.1058856	43.8833	43.6376	7.083448	31.19787
871	6.07616	3.1057996	44.0993	43.8524	7.083196	31.19462
872	6.07692	3.1054983	44.3247	44.0765	7.083260	31.19046
873	6.07565	3.1054430	44.5409	44.2915	7.083453	31.19092
874	6.07408	3.1055907	44.7540	44.5033	7.083581	31.19391
875	6.07347	3.1055908	44.9823	44.7304	7.083662	31.19436
876	6.07316	3.1054740	45.2015	44.9483	7.083766	31.19324
877	6.07235	3.1052957	45.4208	45.1663	7.083965	31.19190
878	6.07098	3.1056525	45.6307	45.3750	7.083959	31.19703
879	6.07113	3.1064521	45.8531	45.5961	7.083533	31.20567
880	6.07372	3.1064521	46.0753	45.8170	7.083211	31.20318
881	6.07448	3.1059663	46.2944	46.0349	7.083370	31.19698
882	6.07108	3.1056220	46.5166	46.2559	7.083981	31.19618
883	6.06468	3.1055053	46.7390	46.4769	7.084853	31.20067
884	6.05797	3.1054685	46.9550	46.6918	7.085723	31.20633
885	6.05295	3.1052964	47.1864	46.9218	7.086451	31.20894
886	6.04863	3.1051244	47.4087	47.1428	7.087089	31.21089
887	6.04416	3.1050937	47.6310	47.3638	7.087673	31.21456
888	6.04076	3.1050323	47.8501	47.5817	7.088139	31.21691
889	6.03878	3.1050939	48.0663	47.7966	7.088362	31.21931
890	6.03766	3.1050940	48.2855	48.0146	7.088508	31.22024
891	6.03670	3.1050941	48.5048	48.2327	7.088634	31.22103
892	6.03599	3.1051495	48.7178	48.4445	7.088700	31.22220
893	6.03568	3.1053094	48.9370	48.6624	7.088661	31.22415
894	6.03629	3.1052972	49.1501	48.8743	7.088595	31.22336
895	6.03685	3.1052972	49.3693	49.0922	7.088529	31.22274
896	6.03731	3.1053711	49.5855	49.3072	7.088438	31.22304
897	6.03797	3.1053281	49.8047	49.5252	7.088382	31.22185
898	6.03822	3.1052974	50.0209	49.7400	7.088370	31.22117
899	6.03761	3.1052483	50.2340	49.9520	7.088477	31.22109
900	6.03639	3.1052115	50.4532	50.1699	7.088655	31.22170
901	6.03314	3.1050947	50.6723	50.3878	7.089130	31.22329
902	6.02761	3.1049719	50.8824	50.5967	7.089896	31.22692
903	6.02056	3.1048859	51.0987	50.8117	7.090836	31.23236
904	6.01345	3.1049783	51.3209	51.0326	7.091690	31.23983
905	6.00660	3.1053412	51.5310	51.2415	7.092373	31.25009
906	6.00062	3.1053291	51.7472	51.4564	7.093140	31.25537
907	5.99514	3.1051816	51.9573	51.6654	7.093913	31.25869
908	5.98961	3.1050956	52.1704	51.8773	7.094660	31.26273
909	5.98469	3.1049481	52.3896	52.0952	7.095363	31.26552
910	5.98048	3.1046531	52.6088	52.3131	7.096052	31.26602
911	5.97557	3.1043765	52.8250	52.5280	7.096821	31.26737
912	5.96994	3.1042413	53.0319	52.7338	7.097607	31.27097
913	5.96477	3.1041492	53.2542	52.9548	7.098314	31.27461
914	5.96102	3.1039772	53.4612	53.1606	7.098881	31.27606
915	5.95762	3.1036207	53.6806	53.3787	7.099500	31.27512
916	5.95382	3.1034732	53.8966	53.5935	7.100062	31.27688
917	5.95017	3.1033196	54.1128	53.8085	7.100608	31.27844
918	5.94648	3.1031230	54.3289	54.0233	7.101182	31.27956
919	5.94111	3.1016477	54.5452	54.2384	7.102631	31.26797
920	5.93128	3.1035721	54.7522	54.4441	7.102882	31.29842
921	5.92627	3.1023549	54.9622	54.6530	7.104152	31.28937
922	5.91756	3.1018817	55.1662	54.8559	7.105505	31.29205
923	5.90632	3.0995587	55.3793	55.0677	7.108139	31.27641
924	5.88932	3.0967633	55.5864	55.2736	7.111752	31.26083
925	5.86636	3.0961186	55.7995	55.4854	7.115007	31.27476
926	5.84740	3.0956458	56.0096	55.6944	7.117665	31.28692
927	5.83335	3.0954372	56.2228	55.9063	7.119564	31.29750
928	5.82335	3.0950873	56.4449	56.1272	7.121022	31.30274
929	5.81608	3.0966722	56.6581	56.3391	7.121125	31.32712
930	5.81380	3.0979686	56.8683	56.5481	7.120742	31.34363
931	5.81562	3.0992651	57.0783	56.7569	7.119839	31.35636
932	5.81971	3.0998428	57.2884	56.9658	7.119023	31.35892
933	5.82214	3.0994987	57.5044	57.1805	7.118899	31.35272
934	5.81941	3.0993144	57.7086	57.3835	7.119346	31.35309
935	5.81426	3.0995603	57.9186	57.5924	7.119877	31.36053
936	5.81002	3.1000029	58.1288	57.8013	7.120189	31.36932
937	5.80704	3.1017670	58.3388	58.0101	7.119652	31.39174
938	5.80891	3.1038019	58.5519	58.2220	7.118357	31.41268
939	5.81582	3.1042446	58.7590	58.4279	7.117253	31.41110
940	5.82128	3.1042569	58.9661	58.6338	7.116559	31.40607
941	5.82183	3.1026830	59.1822	58.8486	7.117314	31.38784
942	5.81451	3.1007961	59.3923	59.0575	7.119233	31.37342
943	5.79851	3.0975456	59.5963	59.2604	7.122968	31.35180
944	5.77135	3.0945299	59.8125	59.4753	7.128002	31.34314
945	5.73721	3.0936767	60.0166	59.6782	7.132802	31.36520
946	5.70763	3.0931674	60.2174	59.8779	7.136844	31.38691
947	5.68673	3.0930939	60.4244	60.0837	7.139553	31.40545
948	5.67264	3.0929161	60.6468	60.3048	7.141450	31.41648
949	5.66272	3.0926461	60.8508	60.5076	7.142862	31.42260
950	5.65588	3.0928304	61.0578	60.7134	7.143643	31.43095
951	5.65155	3.0925665	61.2680	60.9224	7.144339	31.43192
952	5.64788	3.0922719	61.4780	61.1311	7.144968	31.43194
953	5.64461	3.0923272	61.6941	61.3461	7.145361	31.43551
954	5.64250	3.0922414	61.8982	61.5489	7.145681	31.43641
955	5.64149	3.0922414	62.1083	61.7578	7.145814	31.43725
956	5.64064	3.0922415	62.3092	61.9575	7.145928	31.43796
957	5.64023	3.0921802	62.5284	62.1755	7.146016	31.43754
958	5.63958	3.0915970	62.7326	62.3785	7.146412	31.43149
959	5.63661	3.0914497	62.9486	62.5933	7.146873	31.43250
960	5.63329	3.0909710	63.1527	62.7962	7.147554	31.43012
961	5.62902	3.0905107	63.3537	62.9960	7.148348	31.42883
962	5.62233	3.0902469	63.5699	63.2110	7.149346	31.43200
963	5.61554	3.0900751	63.7829	63.4227	7.150309	31.43631
964	5.60866	3.0896886	63.9962	63.6347	7.151399	31.43828
965	5.60192	3.0892407	64.2062	63.8435	7.152501	31.43943
966	5.59544	3.0891917	64.4133	64.0494	7.153361	31.44484
967	5.59047	3.0892225	64.6264	64.2613	7.153986	31.44973
968	5.58695	3.0892410	64.8365	64.4702	7.154431	31.45312
969	5.58484	3.0893086	65.0497	64.6821	7.154670	31.45575
970	5.58334	3.0894253	65.2688	64.9000	7.154806	31.45837
971	5.58213	3.0897016	65.5064	65.1362	7.154820	31.46250
972	5.58198	3.0899226	65.7499	65.3783	7.154728	31.46501
973	5.58248	3.0899840	65.9571	65.5842	7.154636	31.46513
974	5.58263	3.0901867	66.1611	65.7870	7.154514	31.46718
975	5.58248	3.0903033	66.3804	66.0051	7.154476	31.46853
976	5.58233	3.0904446	66.5903	66.2138	7.154426	31.47016
977	5.58203	3.0905981	66.8065	66.4288	7.154388	31.47207
978	5.58168	3.0907762	67.0196	66.6406	7.154344	31.47430
979	5.58138	3.0908806	67.2420	66.8617	7.154332	31.47565
980	5.58077	3.0912429	67.4582	67.0766	7.154222	31.48019
981	5.58047	3.0920411	67.6683	67.2855	7.153844	31.48936
982	5.58138	3.0923665	67.8906	67.5065	7.153561	31.49208
983	5.58208	3.0924464	68.1129	67.7275	7.153434	31.49221
984	5.58213	3.0924895	68.3321	67.9454	7.153410	31.49255
985	5.58208	3.0924772	68.5451	68.1572	7.153427	31.49235
986	5.58238	3.0924773	68.7675	68.3784	7.153394	31.49197
987	5.58248	3.0925511	68.9837	68.5933	7.153347	31.49260
988	5.58188	3.0926248	69.2059	68.8142	7.153390	31.49389
989	5.58148	3.0926556	69.4252	69.0322	7.153430	31.49450
990	5.58072	3.0926802	69.6384	69.2442	7.153518	31.49538
991	5.58032	3.0927417	69.8698	69.4742	7.153542	31.49634
992	5.58002	3.0927724	70.0890	69.6921	7.153570	31.49687
993	5.57962	3.0927725	70.3083	69.9102	7.153626	31.49714
994	5.57912	3.0928892	70.5244	70.1250	7.153633	31.49882
995	5.57907	3.0930797	70.7497	70.3490	7.153544	31.50090
996	5.57937	3.0931227	70.9690	70.5670	7.153488	31.50100
997	5.57952	3.0932701	71.1821	70.7788	7.153395	31.50242
998	5.57947	3.0932702	71.4014	70.9968	7.153407	31.50236
999	5.57937	3.0933624	71.6145	71.2087	7.153375	31.50339
1000	5.57917	3.0933318	71.8460	71.4389	7.153423	31.50312
1001	5.57887	3.0932704	72.0620	71.6536	7.153498	31.50261
1002	5.57836	3.0932459	72.2814	71.8717	7.153581	31.50270
1003	5.57771	3.0932153	72.5068	72.0958	7.153685	31.50286
1004	5.57726	3.0937312	72.7260	72.3137	7.153475	31.50899
1005	5.57686	3.0940383	72.9361	72.5226	7.153369	31.51272
1006	5.57666	3.0941550	73.1644	72.7496	7.153338	31.51412
1007	5.57641	3.0942288	73.3866	72.9704	7.153336	31.51508
1008	5.57646	3.0943026	73.6059	73.1885	7.153296	31.51576
1009	5.57636	3.0943518	73.8281	73.4094	7.153288	31.51630
1010	5.57651	3.0945361	74.0506	73.6306	7.153176	31.51813
1011	5.57676	3.0948924	74.2668	73.8455	7.152960	31.52180
1012	5.57746	3.0950337	74.4981	74.0755	7.152801	31.52263
1013	5.57811	3.0950952	74.7204	74.2965	7.152690	31.52260
1014	5.57826	3.0951812	74.9518	74.5265	7.152630	31.52332
1015	5.57836	3.0952550	75.2167	74.7899	7.152585	31.52393
1016	5.57831	3.0952735	75.4482	75.0200	7.152586	31.52407
1017	5.57796	3.0950954	75.6734	75.2439	7.152731	31.52229
1018	5.57666	3.0949113	75.8927	75.4619	7.153000	31.52133
1019	5.57485	3.0945981	76.1179	75.6858	7.153402	31.51939
1020	5.57189	3.0945061	76.3465	75.9130	7.153834	31.52102
1021	5.56787	3.0946966	76.5626	76.1278	7.154252	31.52682
1022	5.56501	3.0949792	76.7849	76.3489	7.154474	31.53258
1023	5.56390	3.0952250	77.0041	76.5668	7.154490	31.53628
1024	5.56405	3.0960358	77.2324	76.7938	7.154047	31.54517
1025	5.56646	3.0969204	77.4578	77.0178	7.153276	31.55277
1026	5.57118	3.0972092	77.6741	77.2328	7.152525	31.55150
1027	5.57500	3.0972707	77.9084	77.4658	7.152010	31.54850
1028	5.57691	3.0976516	78.1400	77.6960	7.151570	31.55089
1029	5.57821	3.0978606	78.3653	77.9200	7.151297	31.55192
1030	5.57967	3.0980081	78.5875	78.1409	7.151038	31.55210
1031	5.58047	3.0982416	78.8189	78.3710	7.150818	31.55387
1032	5.58153	3.0983584	79.0473	78.5980	7.150626	31.55409
1033	5.58218	3.0985674	79.2788	78.8281	7.150438	31.55572
1034	5.58309	3.1000669	79.5133	79.0613	7.149535	31.57165
1035	5.58796	3.1014682	79.7479	79.2945	7.148178	31.58276
1036	5.59680	3.1022796	79.9821	79.5273	7.146626	31.58349
1037	5.60534	3.1025439	80.2167	79.7606	7.145402	31.57834
1038	5.61147	3.1021505	80.4602	80.0026	7.144833	31.56804
1039	5.61303	3.1008659	80.6978	80.2388	7.145317	31.55201
1040	5.60841	3.1004481	80.9292	80.4689	7.146133	31.55153
1041	5.60263	3.0999442	81.1667	80.7049	7.147142	31.55116
1042	5.59655	3.0995080	81.4011	80.9380	7.148154	31.55183
1043	5.59092	3.0993300	81.6418	81.1772	7.148972	31.55498
1044	5.58660	3.0999753	81.8974	81.4314	7.149188	31.56618
1045	5.58580	3.1003011	82.1349	81.6675	7.149124	31.57049
1046	5.58690	3.1003012	82.3726	81.9037	7.148988	31.56934
1047	5.58725	3.1000063	82.6130	82.1427	7.149105	31.56557
1048	5.58550	3.0996868	82.8474	82.3757	7.149503	31.56351
1049	5.58263	3.0996562	83.0849	82.6118	7.149890	31.56574
1050	5.58047	3.0996624	83.3255	82.8510	7.150168	31.56772
1051	5.57887	3.0996563	83.5662	83.0903	7.150382	31.56904
1052	5.57766	3.0994168	83.8127	83.3354	7.150668	31.56735
1053	5.57615	3.0993308	84.0441	83.5654	7.150911	31.56769
1054	5.57410	3.0993063	84.2909	83.8108	7.151193	31.56923
1055	5.57259	3.0992941	84.5314	84.0498	7.151397	31.57039
1056	5.57163	3.0993311	84.7751	84.2921	7.151505	31.57158
1057	5.57103	3.0996876	85.0246	84.5401	7.151399	31.57604
1058	5.57163	3.0998843	85.2988	84.8127	7.151224	31.57756
1059	5.57264	3.1001302	85.5790	85.0912	7.150972	31.57926
1060	5.57359	3.1002163	85.8377	85.3484	7.150811	31.57921
1061	5.57404	3.1002225	86.0813	85.5905	7.150755	31.57874
1062	5.57420	3.1002779	86.3157	85.8235	7.150712	31.57911
1063	5.57425	3.1002473	86.5806	86.0869	7.150728	31.57859
1064	5.57420	3.1002596	86.8181	86.3230	7.150733	31.57866
1065	5.57394	3.1002474	87.0677	86.5712	7.150777	31.57864
1066	5.57369	3.1002168	87.3115	86.8135	7.150831	31.57841
1067	5.57364	3.1002230	87.5581	87.0586	7.150840	31.57841
1068	5.57354	3.1004504	87.8108	87.3098	7.150738	31.58095
1069	5.57415	3.1006595	88.0757	87.5732	7.150556	31.58261
1070	5.57535	3.1009423	88.3254	87.8213	7.150259	31.58455
1071	5.57686	3.1014279	88.5630	88.0575	7.149815	31.58849
1072	5.57947	3.1018091	88.8248	88.3178	7.149286	31.59021
1073	5.58288	3.1021841	89.0807	88.5722	7.148658	31.59111
1074	5.58640	3.1019567	89.3335	88.8235	7.148334	31.58512
1075	5.58936	3.1027805	89.5739	89.0625	7.147527	31.59151
1076	5.59178	3.1030572	89.8327	89.3198	7.147079	31.59224
1077	5.59258	3.1020429	90.0915	89.5770	7.147517	31.57993
1078	5.58866	3.1014283	90.3444	89.8284	7.148348	31.57656
1079	5.58213	3.1010351	90.5908	90.0734	7.149395	31.57814
1080	5.57630	3.1009246	90.8377	90.3188	7.150203	31.58225
1081	5.57179	3.1006911	91.0933	90.5729	7.150909	31.58373
1082	5.56792	3.1009432	91.3370	90.8151	7.151275	31.59009
1083	5.56581	3.1011892	91.5868	91.0635	7.151420	31.59472
1084	5.56631	3.1020129	91.8334	91.3086	7.150926	31.60341
1085	5.56892	3.1021851	92.0740	91.5477	7.150507	31.60279
1086	5.57138	3.1022220	92.3145	91.7868	7.150179	31.60078
1087	5.57284	3.1020131	92.5581	92.0290	7.150109	31.59694
1088	5.57224	3.1012202	92.8049	92.2743	7.150610	31.58845
1089	5.56827	3.1010114	93.0484	92.5163	7.151233	31.58970
1090	5.56410	3.1012205	93.2980	92.7645	7.151660	31.59585
1091	5.56154	3.1011898	93.5448	93.0099	7.152009	31.59779
1092	5.56004	3.1010424	93.7883	93.2519	7.152285	31.59743
1093	5.55868	3.1010978	94.0291	93.4912	7.152434	31.59921
1094	5.55793	3.1011901	94.2695	93.7302	7.152487	31.60084
1095	5.55788	3.1012516	94.5161	93.9754	7.152466	31.60147
1096	5.55803	3.1014115	94.7628	94.2205	7.152368	31.60301
1097	5.55828	3.1013378	95.0065	94.4628	7.152380	31.60182
1098	5.55833	3.1013071	95.2410	94.6959	7.152396	31.60132
1099	5.55813	3.1012826	95.4965	94.9499	7.152440	31.60111
1100	5.55783	3.1013380	95.7371	95.1891	7.152454	31.60190
1101	5.55768	3.1012213	96.0053	95.4557	7.152541	31.60060
1102	5.55697	3.1009448	96.2792	95.7280	7.152784	31.59801
1103	5.55552	3.1008712	96.5321	95.9794	7.153014	31.59842
1104	5.55416	3.1008098	96.7635	96.2093	7.153225	31.59889
1105	5.55306	3.1007853	97.0039	96.4483	7.153385	31.59954
1106	5.55206	3.1007485	97.2476	96.6905	7.153538	31.59995
1107	5.55145	3.1007486	97.4943	96.9358	7.153620	31.60040
1108	5.55095	3.1006933	97.7410	97.1810	7.153719	31.60013
1109	5.55045	3.1006319	97.9815	97.4201	7.153821	31.59979
1110	5.54980	3.1005152	98.2252	97.6623	7.153972	31.59897
1111	5.54874	3.1004170	98.4748	97.9105	7.154164	31.59874
1112	5.54754	3.1002819	98.7154	98.1496	7.154395	31.59823
1113	5.54643	3.1002512	98.9681	98.4008	7.154558	31.59880
1114	5.54538	3.1001960	99.2148	98.6461	7.154728	31.59905
1115	5.54453	3.1001653	99.4553	98.8851	7.154859	31.59939
1116	5.54372	3.1001654	99.7112	99.1395	7.154967	31.60002
1117	5.54322	3.1002946	99.9517	99.3785	7.154968	31.60183
1118	5.54342	3.1000427	100.1953	99.6207	7.155081	31.59868
1119	5.54277	3.1001349	100.4481	99.8719	7.155122	31.60022
1120	5.54247	3.1002641	100.6919	100.1143	7.155097	31.60184
1121	5.54272	3.1003072	100.9353	100.3563	7.155048	31.60197
1122	5.54327	3.1000430	101.1851	100.6046	7.155123	31.59835
1123	5.54377	3.1005101	101.4286	100.8467	7.154817	31.60303
1124	5.54443	3.1003995	101.6755	101.0920	7.154797	31.60106
1125	5.54438	3.1003074	101.9189	101.3340	7.154858	31.59995
1126	5.54352	3.1002952	102.1657	101.5793	7.154979	31.60049
1127	5.54262	3.1001662	102.4093	101.8214	7.155168	31.59977
1128	5.54182	3.1006641	102.6588	102.0695	7.155013	31.60602
1129	5.54307	3.1007871	102.8996	102.3088	7.154793	31.60611
1130	5.54493	3.1005475	103.1401	102.5479	7.154688	31.60155
1131	5.54473	3.1004799	103.3957	102.8020	7.154755	31.60085
1132	5.54352	3.1003079	103.6304	103.0353	7.155005	31.59993
1133	5.54187	3.1001052	103.8710	103.2744	7.155330	31.59909
1134	5.53971	3.1001053	104.1177	103.5196	7.155611	31.60100
1135	5.53820	3.0999579	104.3581	103.7585	7.155887	31.60063
1136	5.53680	3.1000440	104.5958	103.9948	7.156027	31.60281
1137	5.53595	3.1000441	104.8394	104.2370	7.156141	31.60349
1138	5.53550	3.0998967	105.0860	104.4821	7.156283	31.60214
1139	5.53449	3.0997800	105.3358	104.7304	7.156478	31.60164
1140	5.53344	3.0997985	105.5764	104.9695	7.156609	31.60273
1141	5.53248	3.0997802	105.8170	105.2087	7.156746	31.60330
1142	5.53178	3.0997495	106.0636	105.4538	7.156857	31.60350
1143	5.53143	3.0997680	106.3041	105.6929	7.156898	31.60392
1144	5.53133	3.0997804	106.5691	105.9563	7.156910	31.60403
1145	5.53113	3.0997498	106.8340	106.2196	7.156958	31.60374
1146	5.53088	3.0997683	107.0868	106.4709	7.156986	31.60407
1147	5.53073	3.0997806	107.3274	106.7100	7.157004	31.60423
1148	5.53058	3.0998114	107.5710	106.9521	7.157013	31.60460
1149	5.53053	3.0998607	107.8206	107.2002	7.156998	31.60509
1150	5.53073	3.0999591	108.0583	107.4366	7.156926	31.60589
1151	5.53138	3.0999284	108.3018	107.6786	7.156864	31.60482
1152	5.53153	3.0998916	108.5484	107.9237	7.156870	31.60414
1153	5.53148	3.0998425	108.7831	108.1569	7.156908	31.60352
1154	5.53103	3.0998119	109.0357	108.4081	7.156988	31.60348
1155	5.53038	3.0997689	109.2672	108.6382	7.157099	31.60350
1156	5.52988	3.0998428	109.5200	108.8894	7.157130	31.60468
1157	5.52983	3.0999903	109.7514	109.1194	7.157063	31.60628
1158	5.53068	3.1005128	109.9921	109.3587	7.156683	31.61126
1159	5.53334	3.1012258	110.2295	109.5947	7.155970	31.61669
1160	5.53876	3.1015208	110.4548	109.8186	7.155127	31.61481
1161	5.54377	3.1014164	110.7048	110.0671	7.154546	31.60880
1162	5.54653	3.1011644	110.9452	110.3060	7.154332	31.60325
1163	5.54699	3.1013120	111.1797	110.5392	7.154201	31.60438
1164	5.54734	3.1013551	111.4232	110.7812	7.154139	31.60442
1165	5.54784	3.1013736	111.6639	111.0204	7.154071	31.60404
1166	5.54809	3.1013552	111.9045	111.2595	7.154054	31.60348
1167	5.54819	3.1013737	112.1389	111.4926	7.154036	31.60348
1168	5.54789	3.1013123	112.3855	111.7376	7.154113	31.60296
1169	5.54769	3.1013554	112.6200	111.9708	7.154121	31.60352
1170	5.54749	3.1013125	112.8638	112.2131	7.154175	31.60311
1171	5.54729	3.1013740	113.1014	112.4493	7.154173	31.60387
1172	5.54729	3.1013556	113.3388	112.6852	7.154188	31.60355
1173	5.54744	3.1013127	113.5764	112.9214	7.154197	31.60281
1174	5.54759	3.1014603	113.8200	113.1635	7.154105	31.60422
1175	5.54834	3.1015403	114.0485	113.3906	7.153972	31.60430
1176	5.54940	3.1015219	114.2889	113.6296	7.153852	31.60299
1177	5.55005	3.1016387	114.5174	113.8567	7.153712	31.60359
1178	5.55035	3.1016019	114.7642	114.1020	7.153699	31.60277
1179	5.55080	3.1017311	114.9925	114.3290	7.153578	31.60369
1180	5.55095	3.1016697	115.2300	114.5650	7.153597	31.60275
1181	5.55105	3.1016636	115.4705	114.8041	7.153592	31.60247
1182	5.55105	3.1016698	115.7112	115.0433	7.153595	31.60242
1183	5.55090	3.1017006	115.9457	115.2763	7.153603	31.60280
1184	5.55070	3.1016638	116.1893	115.5185	7.153653	31.60246
1185	5.55085	3.1017561	116.4177	115.7455	7.153590	31.60325
1186	5.55100	3.1015226	116.6612	115.9876	7.153700	31.60035
1187	5.55035	3.1016333	116.8958	116.2207	7.153730	31.60210
1188	5.55000	3.1020206	117.1668	116.4901	7.153576	31.60667
1189	5.55155	3.1021436	117.4288	116.7505	7.153318	31.60647
1190	5.55306	3.1021621	117.6784	116.9986	7.153122	31.60514
1191	5.55411	3.1021991	117.9040	117.2227	7.152973	31.60446
1192	5.55467	3.1021991	118.1352	117.4526	7.152907	31.60383
1193	5.55487	3.1021931	118.3790	117.6949	7.152890	31.60346
1194	5.55522	3.1021993	118.6163	117.9308	7.152847	31.60309
1195	5.55497	3.1021440	118.8480	118.1610	7.152914	31.60259
1196	5.55467	3.1021933	119.0914	118.4030	7.152932	31.60331
1197	5.55462	3.1022302	119.3292	118.6394	7.152924	31.60366
1198	5.55497	3.1022610	119.5667	118.8754	7.152868	31.60356
1199	5.55497	3.1023164	119.7981	119.1054	7.152844	31.60408
1200	5.55517	3.1021997	120.0295	119.3354	7.152885	31.60246
1201	5.55472	3.1020830	120.2671	119.5715	7.153010	31.60146
1202	5.55356	3.1019785	120.4986	119.8016	7.153218	31.60125
1203	5.55241	3.1020524	120.7331	120.0347	7.153332	31.60306
1204	5.55175	3.1021139	120.9706	120.2708	7.153388	31.60425
1205	5.55160	3.1020402	121.2051	120.5039	7.153452	31.60345
1206	5.55145	3.1019358	121.4455	120.7428	7.153531	31.60230
1207	5.55070	3.1019666	121.6740	120.9699	7.153617	31.60324
1208	5.55035	3.1021634	121.9055	121.2000	7.153563	31.60568
1209	5.55105	3.1022311	122.1460	121.4390	7.153442	31.60567
1210	5.55190	3.1021697	122.3807	121.6723	7.153371	31.60406
1211	5.55216	3.1019792	122.6150	121.9052	7.153445	31.60156
1212	5.55110	3.1018502	122.8468	122.1355	7.153653	31.60099
1213	5.54960	3.1017335	123.0780	122.3654	7.153913	31.60098
1214	5.54779	3.1013893	123.3095	122.5954	7.154331	31.59868
1215	5.54503	3.1014939	123.5380	122.8226	7.154633	31.60234
1216	5.54302	3.1017030	123.7694	123.0525	7.154785	31.60648
1217	5.54192	3.1017584	124.0099	123.2916	7.154902	31.60802
1218	5.54111	3.1017892	124.2384	123.5187	7.154993	31.60901
1219	5.54041	3.1017893	124.4668	123.7457	7.155088	31.60957
1220	5.53981	3.1019492	124.6982	123.9757	7.155086	31.61182
1221	5.53986	3.1020230	124.9268	124.2029	7.155045	31.61250
1222	5.53961	3.1014637	125.1582	124.4329	7.155379	31.60632
1223	5.53735	3.1010766	125.3804	124.6538	7.155877	31.60397
1224	5.53354	3.1009968	125.6059	124.8779	7.156412	31.60654
1225	5.53048	3.0964191	125.8373	125.1078	7.159234	31.55768
1226	5.52867	3.1010216	126.0626	125.3318	7.157032	31.61117
1227	5.52757	3.1009356	126.2850	125.5528	7.157224	31.61113
1228	5.52662	3.1007943	126.5226	125.7890	7.157426	31.61032
1229	5.52476	3.1007329	126.7418	126.0068	7.157701	31.61127
1230	5.52305	3.1006101	126.9824	126.2459	7.157989	31.61137
1231	5.52170	3.1005487	127.2323	126.4943	7.158201	31.61183
1232	5.52020	3.1005549	127.4820	126.7425	7.158396	31.61319
1233	5.51929	3.1006411	127.7163	126.9754	7.158471	31.61490
1234	5.51909	3.1006411	127.9297	127.1875	7.158501	31.61499
1235	5.51919	3.1006412	128.1642	127.4206	7.158494	31.61478
1236	5.51904	3.1007027	128.3831	127.6381	7.158485	31.61551
1237	5.51929	3.1004262	128.6180	127.8716	7.158605	31.61205
1238	5.51809	3.1001989	128.8342	128.0864	7.158884	31.61051
1239	5.51598	3.0998794	129.0625	128.3134	7.159328	31.60877
1240	5.51332	3.0997750	129.2818	128.5313	7.159729	31.60999
1241	5.51082	3.0997014	129.5071	128.7552	7.160094	31.61141
1242	5.50891	3.0997015	129.7265	128.9733	7.160343	31.61309
1243	5.50746	3.0997077	129.9517	129.1972	7.160530	31.61442
1244	5.50661	3.0999659	130.1528	129.3970	7.160507	31.61804
1245	5.50671	3.1000520	130.3235	129.5666	7.160452	31.61884
1246	5.50731	3.1001749	130.4483	129.6907	7.160313	31.61960
1247	5.50791	3.1002610	130.5094	129.7514	7.160192	31.61997
1248	5.50841	3.1002302	130.4853	129.7275	7.160143	31.61917
1249	5.50906	3.1003961	130.4549	129.6972	7.159971	31.62044
1250	5.51022	3.1004637	130.4584	129.7007	7.159788	31.62012
1251	5.51147	3.1004637	130.4614	129.7037	7.159628	31.61894
1252	5.51222	3.1004883	130.4099	129.6525	7.159517	31.61853
1253	5.51257	3.1004944	130.2914	129.5347	7.159466	31.61833
1254	5.51317	3.1007033	130.1577	129.4019	7.159276	31.62018
1255	5.51423	3.1008323	130.0514	129.2962	7.159070	31.62070
1256	5.51543	3.1007340	129.9207	129.1663	7.158965	31.61852
1257	5.51583	3.1004942	129.7627	129.0093	7.159037	31.61552
1258	5.51518	3.1006109	129.5954	128.8430	7.159055	31.61753
1259	5.51483	3.1005556	129.4494	128.6979	7.159126	31.61730
1260	5.51468	3.1004265	129.2915	128.5410	7.159210	31.61606
1261	5.51423	3.1004940	129.1335	128.3839	7.159229	31.61732
1262	5.51428	3.1002912	128.9510	128.2025	7.159326	31.61508
1263	5.51398	3.1001743	128.7715	128.0242	7.159422	31.61413
1264	5.51332	3.1002603	128.5831	127.8369	7.159456	31.61580
1265	5.51322	3.1003463	128.3946	127.6496	7.159419	31.61695
1266	5.51383	3.1002049	128.2091	127.4651	7.159412	31.61488
1267	5.51398	3.1001741	128.0054	127.2627	7.159405	31.61449
1268	5.51358	3.1000819	127.8077	127.0663	7.159501	31.61392
1269	5.51312	3.1002047	127.5919	126.8517	7.159488	31.61584
1270	5.51358	3.1004935	127.3820	126.6431	7.159273	31.61877
1271	5.51538	3.1006717	127.1541	126.4166	7.158942	31.61919
1272	5.51764	3.1008621	126.9353	126.1991	7.158548	31.61933
1273	5.51984	3.1009973	126.7252	125.9904	7.158189	31.61888
1274	5.52180	3.1005239	126.5154	125.7818	7.158185	31.61180
1275	5.52341	3.1010155	126.3026	125.5703	7.157714	31.61594
1276	5.52416	3.1009356	126.0806	125.3497	7.157655	31.61444
1277	5.52476	3.1008802	125.8649	125.1353	7.157603	31.61335
1278	5.52486	3.1009539	125.6489	124.9206	7.157546	31.61419
1279	5.52516	3.1009968	125.4301	124.7032	7.157480	31.61450
1280	5.52586	3.1011135	125.2140	124.4883	7.157323	31.61526
1281	5.52697	3.1011995	124.9980	124.2737	7.157132	31.61529
1282	5.52792	3.1011441	124.7731	124.0502	7.157034	31.61388
1283	5.52847	3.1011686	124.5542	123.8326	7.156946	31.61374
1284	5.52922	3.1012300	124.3414	123.6211	7.156812	31.61383
1285	5.53028	3.1014942	124.1254	123.4064	7.156533	31.61592
1286	5.53183	3.1016110	123.9065	123.1888	7.156267	31.61588
1287	5.53359	3.1017891	123.6784	122.9621	7.155943	31.61635
1288	5.53565	3.1019058	123.4685	122.7535	7.155613	31.61584
1289	5.53745	3.1019365	123.2496	122.5360	7.155361	31.61459
1290	5.53886	3.1019794	123.0277	122.3154	7.155154	31.61386
1291	5.53996	3.1019056	122.8208	122.1098	7.155047	31.61209
1292	5.54076	3.1019363	122.5959	121.8862	7.154923	31.61179
1293	5.54177	3.1020407	122.3770	121.6687	7.154735	31.61213
1294	5.54307	3.1019361	122.1519	121.4449	7.154618	31.60983
1295	5.54377	3.1017578	121.9391	121.2334	7.154618	31.60726
1296	5.54367	3.1016040	121.7232	121.0188	7.154708	31.60573
1297	5.54352	3.1016409	121.5102	120.8071	7.154703	31.60639
1298	5.54382	3.1017576	121.2820	120.5802	7.154597	31.60753
1299	5.54498	3.1018190	121.0663	120.3659	7.154412	31.60724
1300	5.54638	3.1019357	120.8442	120.1452	7.154166	31.60734
1301	5.54789	3.1019663	120.6311	119.9334	7.153952	31.60638
1302	5.54924	3.1020093	120.4124	119.7160	7.153752	31.60569
1303	5.55015	3.1019662	120.1996	119.5045	7.153654	31.60446
1304	5.55085	3.1019784	119.9775	119.2837	7.153553	31.60405
1305	5.55145	3.1021689	119.7615	119.0690	7.153370	31.60573
1306	5.55261	3.1021688	119.5427	118.8515	7.153218	31.60475
1307	5.55356	3.1022548	119.3298	118.6399	7.153046	31.60493
1308	5.55441	3.1023162	119.1016	118.4131	7.152899	31.60493
1309	5.55547	3.1023776	118.8857	118.1986	7.152727	31.60473
1310	5.55622	3.1023161	118.6698	117.9840	7.152659	31.60343
1311	5.55677	3.1023160	118.4418	117.7573	7.152583	31.60302
1312	5.55682	3.1023159	118.2230	117.5398	7.152572	31.60308
1313	5.55682	3.1023159	117.9978	117.3161	7.152567	31.60319
1314	5.55702	3.1023158	117.7851	117.1046	7.152536	31.60310
1315	5.55712	3.1023465	117.5690	116.8898	7.152502	31.60346
1316	5.55743	3.1024140	117.3469	116.6691	7.152423	31.60404
1317	5.55793	3.1024631	117.1251	116.4486	7.152328	31.60423
1318	5.55848	3.1025245	116.8788	116.2038	7.152219	31.60452
1319	5.55933	3.1025675	116.6386	115.9650	7.152082	31.60432
1320	5.56004	3.1025551	116.4164	115.7442	7.151994	31.60363
1321	5.56039	3.1025243	116.2005	115.5296	7.151961	31.60305
1322	5.56064	3.1025365	115.9816	115.3121	7.151917	31.60306
1323	5.56094	3.1025242	115.7595	115.0913	7.151880	31.60274
1324	5.56114	3.1024934	115.5406	114.8737	7.151866	31.60231
1325	5.56104	3.1024749	115.3155	114.6500	7.151883	31.60231
1326	5.56069	3.1022596	115.0997	114.4355	7.152037	31.60031
1327	5.56004	3.1021981	114.8776	114.2147	7.152148	31.60034
1328	5.55888	3.1020382	114.6493	113.9878	7.152375	31.59973
1329	5.55768	3.1019951	114.4335	113.7733	7.152547	31.60048
1330	5.55682	3.1018721	114.2177	113.5588	7.152716	31.60000
1331	5.55577	3.1018475	113.9956	113.3381	7.152859	31.60082
1332	5.55477	3.1018167	113.7826	113.1263	7.152999	31.60152
1333	5.55411	3.1017306	113.5669	112.9119	7.153123	31.60126
1334	5.55361	3.1017859	113.3419	112.6883	7.153153	31.60246
1335	5.55336	3.1016075	113.1228	112.4705	7.153274	31.60079
1336	5.55256	3.1014046	112.8978	112.2469	7.153479	31.59937
1337	5.55100	3.1012263	112.6850	112.0354	7.153767	31.59892
1338	5.54879	3.1009927	112.4630	111.8147	7.154168	31.59847
1339	5.54643	3.1009312	112.2410	111.5940	7.154497	31.60010
1340	5.54493	3.1010111	112.0219	111.3762	7.154643	31.60252
1341	5.54413	3.1009004	111.8029	111.1586	7.154799	31.60213
1342	5.54357	3.1009003	111.5807	110.9378	7.154865	31.60275
1343	5.54292	3.1009187	111.3619	110.7202	7.154933	31.60368
1344	5.54282	3.1009617	111.1460	110.5057	7.154919	31.60436
1345	5.54302	3.1009001	110.9211	110.2821	7.154920	31.60358
1346	5.54307	3.1009185	110.6960	110.0583	7.154899	31.60385
1347	5.54307	3.1008447	110.4710	109.8347	7.154933	31.60313
1348	5.54287	3.1007832	110.2608	109.6258	7.154987	31.60272
1349	5.54242	3.1007585	110.0360	109.4023	7.155052	31.60298
1350	5.54222	3.1007523	109.8170	109.1847	7.155076	31.60320
1351	5.54212	3.1006969	109.5951	108.9641	7.155114	31.60278
1352	5.54167	3.1004818	109.3759	108.7463	7.155280	31.60088
1353	5.54066	3.1003711	109.1479	108.5196	7.155462	31.60068
1354	5.53941	3.1003710	108.9350	108.3080	7.155618	31.60196
1355	5.53841	3.1003587	108.7160	108.0903	7.155748	31.60287
1356	5.53790	3.1002541	108.4849	107.8606	7.155862	31.60228
1357	5.53720	3.1001680	108.2749	107.6518	7.155993	31.60207
1358	5.53655	3.1001680	108.0560	107.4342	7.156071	31.60278
1359	5.53630	3.1002540	107.8279	107.2076	7.156053	31.60410
1360	5.53640	3.1001371	107.6090	106.9900	7.156097	31.60279
1361	5.53625	3.1002231	107.3809	106.7632	7.156065	31.60401
1362	5.53650	3.1002845	107.1558	106.5395	7.155996	31.60458
1363	5.53695	3.1002967	106.9367	106.3217	7.155926	31.60439
1364	5.53745	3.1005486	106.7148	106.1011	7.155724	31.60687
1365	5.53881	3.1006960	106.4928	105.8804	7.155468	31.60737
1366	5.54056	3.1007267	106.2556	105.6447	7.155221	31.60618
1367	5.54237	3.1008126	106.0396	105.4299	7.154940	31.60555
1368	5.54367	3.1008986	105.8178	105.2095	7.154723	31.60540
1369	5.54488	3.1009170	105.5986	104.9917	7.154554	31.60458
1370	5.54578	3.1009292	105.3736	104.7680	7.154427	31.60398
1371	5.54628	3.1008738	105.1576	104.5533	7.154388	31.60299
1372	5.54633	3.1008553	104.9325	104.3295	7.154386	31.60284
1373	5.54653	3.1009905	104.7165	104.1148	7.154284	31.60428
1374	5.54704	3.1009289	104.4916	103.8913	7.154247	31.60322
1375	5.54724	3.1009166	104.2665	103.6675	7.154223	31.60300
1376	5.54744	3.1010148	104.0445	103.4468	7.154140	31.60403
1377	5.54819	3.1010762	103.8255	103.2291	7.154007	31.60412
1378	5.54914	3.1011622	103.6064	103.0114	7.153834	31.60430
1379	5.55015	3.1010453	103.3785	102.7849	7.153763	31.60215
1380	5.55070	3.1011620	103.1534	102.5611	7.153625	31.60305
1381	5.55130	3.1011005	102.9373	102.3463	7.153576	31.60190
1382	5.55180	3.1011619	102.7093	102.1197	7.153474	31.60223
1383	5.55201	3.1011926	102.4903	101.9019	7.153428	31.60249
1384	5.55231	3.1011618	102.2652	101.6782	7.153400	31.60197
1385	5.55246	3.1010142	102.0430	101.4573	7.153454	31.60027
1386	5.55216	3.1008973	101.8211	101.2367	7.153549	31.59934
1387	5.55125	3.1009772	101.5961	101.0131	7.153618	31.60120
1388	5.55105	3.1010755	101.3769	100.7952	7.153586	31.60260
1389	5.55165	3.1012229	101.1519	100.5716	7.153426	31.60380
1390	5.55281	3.1013150	100.9269	100.3479	7.153225	31.60387
1391	5.55391	3.1013088	100.7019	100.1242	7.153082	31.60287
1392	5.55497	3.1013702	100.4827	99.9064	7.152910	31.60267
1393	5.55562	3.1014131	100.2578	99.6828	7.152799	31.60265
1394	5.55617	3.1014315	100.0387	99.4651	7.152714	31.60245
1395	5.55667	3.1014007	99.8075	99.2352	7.152661	31.60174
1396	5.55692	3.1013822	99.5855	99.0146	7.152633	31.60140
1397	5.55677	3.1012838	99.3667	98.7970	7.152700	31.60054
1398	5.55667	3.1011608	99.1385	98.5702	7.152772	31.59935
1399	5.55667	3.1013144	98.9164	98.3494	7.152686	31.60119
1400	5.55672	3.1012836	98.6976	98.1319	7.152691	31.60090
1401	5.55672	3.1012835	98.4725	97.9082	7.152686	31.60101
1402	5.55687	3.1013388	98.2504	97.6874	7.152633	31.60160
1403	5.55718	3.1013387	98.0193	97.4577	7.152589	31.60143
1404	5.55748	3.1012833	97.7973	97.2370	7.152575	31.60063
1405	5.55748	3.1012525	97.5752	97.0163	7.152586	31.60038
1406	5.55702	3.1012525	97.3531	96.7955	7.152639	31.60091
1407	5.55682	3.1012217	97.1248	96.5685	7.152676	31.60087
1408	5.55667	3.1011909	96.9029	96.3479	7.152706	31.60077
1409	5.55642	3.1009572	96.6839	96.1303	7.152857	31.59847
1410	5.55532	3.1008527	96.4620	95.9096	7.153048	31.59844
1411	5.55411	3.1008403	96.2340	95.6830	7.153204	31.59954
1412	5.55326	3.1007235	96.0117	95.4621	7.153369	31.59913
1413	5.55246	3.1006927	95.7777	95.2294	7.153483	31.59965
1414	5.55185	3.1006927	95.5435	94.9967	7.153555	31.60033
1415	5.55165	3.1007786	95.3274	94.7818	7.153530	31.60159
1416	5.55206	3.1007540	95.1022	94.5580	7.153487	31.60104
1417	5.55231	3.1007785	94.8803	94.3373	7.153437	31.60119
1418	5.55246	3.1008092	94.6551	94.1135	7.153396	31.60150
1419	5.55276	3.1008829	94.4363	93.8960	7.153314	31.60216
1420	5.55316	3.1008090	94.2081	93.6692	7.153296	31.60106
1421	5.55346	3.1008950	93.9860	93.4484	7.153207	31.60185
1422	5.55401	3.1008519	93.7640	93.2277	7.153155	31.60095
1423	5.55477	3.1008088	93.5360	93.0010	7.153076	31.59987
1424	5.55522	3.1005752	93.3167	92.7830	7.153137	31.59691
1425	5.55462	3.1005075	93.0947	92.5624	7.153245	31.59682
1426	5.55406	3.1005443	92.8698	92.3388	7.153291	31.59787
1427	5.55356	3.1004828	92.6477	92.1180	7.153383	31.59775
1428	5.55366	3.1006917	92.4227	91.8943	7.153254	31.60012
1429	5.55492	3.1009867	92.1945	91.6675	7.152933	31.60237
1430	5.55758	3.1008944	91.9724	91.4467	7.152636	31.59894
1431	5.56004	3.1006915	91.7533	91.2289	7.152425	31.59445
1432	5.56154	3.1006914	91.5253	91.0023	7.152227	31.59314
1433	5.56280	3.1011031	91.3062	90.7845	7.151844	31.59671
1434	5.56521	3.1014411	91.0749	90.5546	7.151352	31.59837
1435	5.56852	3.1016930	90.8530	90.3340	7.150791	31.59820
1436	5.57199	3.1020125	90.6339	90.1162	7.150175	31.59866
1437	5.57585	3.1023690	90.4027	89.8864	7.149487	31.59915
1438	5.58002	3.1026639	90.1838	89.6688	7.148794	31.59867
1439	5.58404	3.1028421	89.9525	89.4388	7.148182	31.59702
1440	5.58791	3.1028051	89.7244	89.2121	7.147703	31.59308
1441	5.59032	3.1023993	89.5023	88.9913	7.147604	31.58635
1442	5.59077	3.1021595	89.2804	88.7707	7.147668	31.58333
1443	5.58987	3.1020303	89.0583	88.5500	7.147847	31.58283
1444	5.58886	3.1019258	88.8331	88.3261	7.148025	31.58270
1445	5.58781	3.1018642	88.6173	88.1115	7.148188	31.58310
1446	5.58715	3.1017166	88.3923	87.8879	7.148344	31.58216
1447	5.58610	3.1013662	88.1641	87.6610	7.148659	31.57931
1448	5.58444	3.1011265	87.9420	87.4402	7.148992	31.57828
1449	5.58268	3.1008375	87.7138	87.2134	7.149364	31.57678
1450	5.58062	3.1007453	87.4977	86.9986	7.149671	31.57778
1451	5.57912	3.1006899	87.2666	86.7688	7.149887	31.57868
1452	5.57811	3.1005731	87.0386	86.5422	7.150072	31.57841
1453	5.57741	3.1005423	86.8163	86.3212	7.150173	31.57883
1454	5.57706	3.1005054	86.5884	86.0947	7.150232	31.57885
1455	5.57686	3.1003025	86.3664	85.8740	7.150360	31.57686
1456	5.57641	3.1000689	86.1411	85.6500	7.150536	31.57476
1457	5.57565	3.0999459	85.9130	85.4233	7.150692	31.57419
1458	5.57505	3.0997185	85.6908	85.2024	7.150885	31.57230
1459	5.57435	3.0996016	85.4659	84.9788	7.151031	31.57175
1460	5.57359	3.0994480	85.2316	84.7459	7.151203	31.57084
1461	5.57319	3.0996015	84.9791	84.4949	7.151168	31.57307
1462	5.57364	3.0999517	84.7387	84.2559	7.150919	31.57671
1463	5.57570	3.1000377	84.5228	84.0413	7.150606	31.57585
1464	5.57781	3.1001605	84.3038	83.8236	7.150267	31.57536
1465	5.57962	3.1001850	84.0695	83.5906	7.150018	31.57405
1466	5.58108	3.1003201	83.8536	83.3760	7.149756	31.57431
1467	5.58248	3.1004798	83.6285	83.1523	7.149487	31.57490
1468	5.58429	3.1003630	83.4065	82.9315	7.149312	31.57199
1469	5.58590	3.1002584	83.1753	82.7017	7.149157	31.56942
1470	5.58695	3.1000125	82.9532	82.4809	7.149147	31.56576
1471	5.58781	3.1000370	82.7311	82.2601	7.149020	31.56535
1472	5.58871	3.1001906	82.5060	82.0364	7.148819	31.56633
1473	5.59047	3.1005961	82.2809	81.8125	7.148375	31.56936
1474	5.59343	3.1009525	82.0590	81.5919	7.147803	31.57070
1475	5.59705	3.1012782	81.8400	81.3743	7.147165	31.57108
1476	5.60092	3.1015424	81.6148	81.1504	7.146527	31.57054
1477	5.60449	3.1017451	81.3896	80.9266	7.145959	31.56958
1478	5.60740	3.1019971	81.1674	80.7057	7.145449	31.56979
1479	5.61037	3.1021875	80.9455	80.4850	7.144966	31.56926
1480	5.61303	3.1022489	80.7204	80.2612	7.144588	31.56757
1481	5.61499	3.1022119	80.4952	80.0374	7.144353	31.56542
1482	5.61585	3.1020705	80.2672	79.8107	7.144313	31.56314
1483	5.61600	3.1020397	80.0451	79.5899	7.144305	31.56275
1484	5.61595	3.1020273	79.8200	79.3661	7.144313	31.56277
1485	5.61570	3.1016892	79.5919	79.1394	7.144519	31.55931
1486	5.61429	3.1012773	79.3698	78.9186	7.144910	31.55610
1487	5.61167	3.1010928	79.1508	78.7009	7.145336	31.55658
1488	5.60921	3.1006872	78.9287	78.4800	7.145859	31.55442
1489	5.60635	3.0999435	78.7005	78.2532	7.146612	31.54884
1490	5.60187	3.0989479	78.4813	78.0353	7.147704	31.54193
1491	5.59620	3.0982720	78.2594	77.8147	7.148781	31.53975
1492	5.59052	3.0978296	78.0374	77.5940	7.149734	31.54019
1493	5.58535	3.0975040	77.8092	77.3672	7.150562	31.54148
1494	5.58158	3.0973319	77.5870	77.1462	7.151129	31.54318
1495	5.57872	3.0972705	77.3618	76.9224	7.151523	31.54528
1496	5.57731	3.0971844	77.1369	76.6988	7.151743	31.54573
1497	5.57666	3.0969509	76.9117	76.4749	7.151945	31.54382
1498	5.57575	3.0964348	76.6864	76.2510	7.152328	31.53896
1499	5.57404	3.0960662	76.4706	76.0364	7.152736	31.53651
1500	5.57189	3.0956853	76.2486	75.8157	7.153209	31.53435
1501	5.56943	3.0953782	76.0263	75.5947	7.153681	31.53330
1502	5.56686	3.0951570	75.8105	75.3802	7.154120	31.53331
1503	5.56481	3.0948929	75.5792	75.1503	7.154518	31.53238
1504	5.56280	3.0946656	75.3541	74.9264	7.154890	31.53181
1505	5.56129	3.0945058	75.1322	74.7058	7.155162	31.53152
1506	5.56039	3.0944444	74.9069	74.4818	7.155305	31.53179
1507	5.56034	3.0943890	74.6849	74.2612	7.155336	31.53132
1508	5.56114	3.0944197	74.4385	74.0162	7.155211	31.53103
1509	5.56305	3.0947266	74.2041	73.7832	7.154800	31.53281
1510	5.56626	3.0948002	73.9851	73.5655	7.154345	31.53073
1511	5.56927	3.0948923	73.7631	73.3447	7.153906	31.52905
1512	5.57173	3.0948492	73.5409	73.1238	7.153609	31.52637
1513	5.57329	3.0948614	73.3190	72.9033	7.153398	31.52515
1514	5.57455	3.0947692	73.0968	72.6824	7.153282	31.52305
1515	5.57540	3.0946647	72.8809	72.4677	7.153223	31.52117
1516	5.57585	3.0945050	72.6587	72.2468	7.153245	31.51906
1517	5.57580	3.0943329	72.4336	72.0230	7.153337	31.51727
1518	5.57580	3.0941056	72.2115	71.8023	7.153452	31.51482
1519	5.57540	3.0939213	71.9865	71.5786	7.153596	31.51323
1520	5.57520	3.0935160	71.7612	71.3546	7.153831	31.50895
1521	5.57515	3.0928896	71.5486	71.1432	7.154164	31.50205
1522	5.57575	3.0927422	71.3141	70.9101	7.154159	31.49993
1523	5.57736	3.0925210	71.0952	70.6924	7.154066	31.49604
1524	5.57907	3.0923306	70.8760	70.4746	7.153943	31.49240
1525	5.58007	3.0921279	70.6540	70.2538	7.153916	31.48929
1526	5.58057	3.0918086	70.4382	70.0393	7.154016	31.48532
1527	5.58072	3.0913051	70.2161	69.8185	7.154258	31.47962
1528	5.58022	3.0910104	69.9878	69.5915	7.154473	31.47688
1529	5.58007	3.0907893	69.7719	69.3768	7.154604	31.47463
1530	5.57972	3.0905683	69.5497	69.1560	7.154761	31.47258
1531	5.57922	3.0902920	69.3246	68.9321	7.154966	31.47004
1532	5.57851	3.0900709	69.1148	68.7236	7.155168	31.46831
1533	5.57796	3.0898069	68.8895	68.4996	7.155374	31.46596
1534	5.57761	3.0894263	68.6644	68.2758	7.155615	31.46211
1535	5.57686	3.0891071	68.4484	68.0611	7.155875	31.45932
1536	5.57590	3.0889291	68.2231	67.8371	7.156086	31.45832
1537	5.57520	3.0887449	68.0042	67.6195	7.156269	31.45700
1538	5.57465	3.0886037	67.7822	67.3987	7.156409	31.45604
1539	5.57480	3.0886343	67.5571	67.1750	7.156369	31.45635
1540	5.57595	3.0888368	67.3288	66.9480	7.156109	31.45766
1541	5.57826	3.0891620	67.1007	66.7212	7.155636	31.45927
1542	5.58213	3.0893644	66.8755	66.4974	7.155029	31.45804
1543	5.58660	3.0895423	66.6414	66.2646	7.154357	31.45598
1544	5.59067	3.0896895	66.4100	66.0346	7.153754	31.45394
1545	5.59489	3.0901681	66.1819	65.8078	7.152956	31.45550
1546	5.60052	3.0905670	65.9566	65.5838	7.152020	31.45484
1547	5.60690	3.0907756	65.7286	65.3571	7.151089	31.45133
1548	5.61218	3.0909105	65.4942	65.1241	7.150338	31.44803
1549	5.61635	3.0909779	65.2661	64.8972	7.149764	31.44500
1550	5.61932	3.0910331	65.0349	64.6674	7.149350	31.44297
1551	5.62123	3.0911558	64.8098	64.4437	7.149036	31.44267
1552	5.62304	3.0912416	64.5845	64.2197	7.148754	31.44205
1553	5.62480	3.0913459	64.3596	63.9960	7.148470	31.44169
1554	5.62640	3.0914195	64.1344	63.7722	7.148220	31.44112
1555	5.62786	3.0916527	63.8910	63.5301	7.147905	31.44250
1556	5.63028	3.0919657	63.6596	63.3001	7.147427	31.44388
1557	5.63334	3.0920946	63.4408	63.0825	7.146962	31.44257
1558	5.63631	3.0922111	63.2217	62.8648	7.146517	31.44122
1559	5.63903	3.0923338	62.9998	62.6441	7.146100	31.44017
1560	5.64159	3.0924197	62.7836	62.4292	7.145722	31.43884
1561	5.64401	3.0924564	62.5585	62.2054	7.145390	31.43711
1562	5.64627	3.0925669	62.3484	61.9966	7.145038	31.43634
1563	5.64828	3.0925913	62.1264	61.7758	7.144763	31.43484
1564	5.65009	3.0926465	61.9075	61.5582	7.144498	31.43388
1565	5.65120	3.0926526	61.6914	61.3433	7.144348	31.43302
1566	5.65226	3.0926218	61.4785	61.1316	7.144225	31.43179
1567	5.65281	3.0925481	61.2624	60.9168	7.144188	31.43054
1568	5.65296	3.0924436	61.0434	60.6991	7.144219	31.42933
1569	5.65316	3.0922716	60.8365	60.4934	7.144279	31.42731
1570	5.65351	3.0922716	60.6235	60.2816	7.144229	31.42708
1571	5.65432	3.0921794	60.4167	60.0760	7.144171	31.42540
1572	5.65502	3.0920872	60.2038	59.8643	7.144124	31.42380
1573	5.65527	3.0921240	59.9968	59.6585	7.144068	31.42408
1574	5.65588	3.0922406	59.7871	59.4500	7.143925	31.42493
1575	5.65734	3.0925168	59.5769	59.2411	7.143589	31.42677
1576	5.66056	3.0928544	59.3732	59.0385	7.142995	31.42766
1577	5.66599	3.0932412	59.1693	58.8358	7.142094	31.42704
1578	5.67279	3.0939779	58.9504	58.6181	7.140834	31.42908
1579	5.68230	3.0958510	58.7464	58.4154	7.138631	31.44135
1580	5.69836	3.0980562	58.5457	58.2158	7.135421	31.45123
1581	5.71957	3.0995000	58.3267	57.9980	7.131958	31.44776
1582	5.74044	3.1002064	58.1289	57.8014	7.128928	31.43633
1583	5.75824	3.0994441	57.9220	57.5957	7.127058	31.41130
1584	5.77125	3.0989708	57.7182	57.3930	7.125646	31.39398
1585	5.78180	3.0987617	57.5202	57.1963	7.124410	31.38193
1586	5.79164	3.0982946	57.3135	56.9908	7.123398	31.36765
1587	5.79906	3.0979442	57.1097	56.7881	7.122634	31.35693
1588	5.80371	3.0980301	56.9090	56.5885	7.121994	31.35368
1589	5.80754	3.0980730	56.7052	56.3859	7.121479	31.35069
1590	5.81163	3.0979685	56.5043	56.1862	7.121010	31.34582
1591	5.81527	3.0971451	56.2974	55.9805	7.120973	31.33333
1592	5.81598	3.0953391	56.0995	55.7837	7.121821	31.31256
1593	5.81138	3.0944976	55.8988	55.5842	7.122840	31.30750
1594	5.80623	3.0947924	55.7013	55.3878	7.123337	31.31567
1595	5.80542	3.0957751	55.5064	55.1940	7.122922	31.32751
1596	5.81042	3.0978821	55.3087	54.9974	7.121182	31.34655
1597	5.82421	3.1000572	55.1170	54.8069	7.118292	31.35818
1598	5.84447	3.1012370	54.9161	54.6071	7.115101	31.35267
1599	5.86358	3.1016178	54.7245	54.4167	7.112474	31.33930
1600	5.87844	3.1022385	54.5296	54.2229	7.110262	31.33255
1601	5.89109	3.1025149	54.3260	54.0205	7.108511	31.32401
1602	5.90177	3.1025885	54.1435	53.8390	7.107116	31.31504
1603	5.91037	3.1024162	53.9516	53.6482	7.106112	31.30524
1604	5.91690	3.1022317	53.7571	53.4548	7.105376	31.29723
1605	5.92070	3.1019427	53.5623	53.2611	7.105041	31.29059
1606	5.92191	3.1016168	53.3707	53.0706	7.105052	31.28592
1607	5.92242	3.1017028	53.1698	52.8709	7.104939	31.28650
1608	5.92414	3.1022068	52.9812	52.6834	7.104455	31.29062
1609	5.92819	3.1025325	52.7896	52.4928	7.103769	31.29060
1610	5.93310	3.1027291	52.5949	52.2993	7.103041	31.28835
1611	5.93776	3.1027966	52.4002	52.1057	7.102412	31.28488
1612	5.94166	3.1029134	52.2085	51.9151	7.101853	31.28267
1613	5.94491	3.1029809	52.0137	51.7215	7.101404	31.28052
1614	5.94800	3.1030607	51.8282	51.5371	7.100967	31.27864
1615	5.95083	3.1030914	51.6303	51.3403	7.100588	31.27646
1616	5.95276	3.1031343	51.4417	51.1527	7.100318	31.27525
1617	5.95463	3.1032695	51.2562	50.9683	7.100007	31.27511
1618	5.95772	3.1034723	51.0646	50.7778	7.099507	31.27460
1619	5.96208	3.1036321	50.8759	50.5902	7.098869	31.27245
1620	5.96669	3.1037672	50.6934	50.4087	7.098212	31.26978
1621	5.97110	3.1038286	50.4987	50.2152	7.097618	31.26648
1622	5.97491	3.1038777	50.3070	50.0246	7.097108	31.26361
1623	5.97845	3.1038838	50.1213	49.8399	7.096652	31.26049
1624	5.98185	3.1038529	49.9297	49.6494	7.096234	31.25710
1625	5.98469	3.1038467	49.7443	49.4650	7.095874	31.25450
1626	5.98718	3.1038282	49.5584	49.2802	7.095566	31.25209
1627	5.98991	3.1037666	49.3639	49.0869	7.095247	31.24897
1628	5.99387	3.1037850	49.1753	48.8993	7.094734	31.24561
1629	5.99935	3.1038525	48.9897	48.7148	7.094002	31.24140
1630	6.00518	3.1038524	48.7949	48.5211	7.093261	31.23611
1631	6.01010	3.1038769	48.6034	48.3307	7.092622	31.23194
1632	6.01376	3.1039137	48.4148	48.1431	7.092138	31.22907
1633	6.01624	3.1039136	48.2199	47.9494	7.091820	31.22687
1634	6.01817	3.1039442	48.0343	47.7649	7.091556	31.22552
1635	6.01964	3.1039442	47.8397	47.5713	7.091366	31.22426
1636	6.02045	3.1039748	47.6480	47.3807	7.091243	31.22394
1637	6.02111	3.1039440	47.4502	47.1841	7.091172	31.22308
1638	6.02162	3.1037349	47.2676	47.0025	7.091211	31.22037
1639	6.02121	3.1035320	47.0759	46.8119	7.091363	31.21858
1640	6.02086	3.1033475	46.8845	46.6216	7.091499	31.21694
1641	6.02091	3.1033536	46.6926	46.4309	7.091485	31.21706
1642	6.02157	3.1033228	46.4979	46.2372	7.091414	31.21620
1643	6.02253	3.1033166	46.3031	46.0435	7.091291	31.21533
1644	6.02375	3.1033534	46.1147	45.8562	7.091114	31.21471
1645	6.02512	3.1033840	45.9168	45.6595	7.090921	31.21388
1646	6.02720	3.1035992	45.7312	45.4750	7.090543	31.21444
1647	6.03071	3.1036482	45.5364	45.2813	7.090071	31.21186
1648	6.03670	3.1036174	45.3327	45.0787	7.089326	31.20609
1649	6.04238	3.1036296	45.1471	44.8942	7.088598	31.20108
1650	6.04634	3.1037033	44.9522	44.7004	7.088056	31.19835
1651	6.04934	3.1037646	44.7635	44.5128	7.087642	31.19636
1652	6.05178	3.1039121	44.5598	44.3102	7.087254	31.19586
1653	6.05432	3.1041211	44.3682	44.1197	7.086821	31.19593
1654	6.05711	3.1040903	44.1793	43.9319	7.086481	31.19311
1655	6.05940	3.1037213	43.9849	43.7386	7.086378	31.18700
1656	6.05980	3.1030880	43.7900	43.5448	7.086648	31.17968
1657	6.05828	3.1024670	43.6014	43.3573	7.087156	31.17426
1658	6.05614	3.1021350	43.4098	43.1668	7.087593	31.17262
1659	6.05411	3.1019075	43.2150	42.9730	7.087962	31.17205
1660	6.05254	3.1017292	43.0233	42.7825	7.088248	31.17161
1661	6.05096	3.1015448	42.8256	42.5859	7.088538	31.17110
1662	6.04980	3.1012620	42.6309	42.3923	7.088827	31.16912
1663	6.04893	3.1011390	42.4483	42.2107	7.088995	31.16863
1664	6.04914	3.1010775	42.2445	42.0082	7.088997	31.16786
1665	6.05066	3.1010836	42.0497	41.8145	7.088797	31.16662
1666	6.05376	3.1011081	41.8487	41.6146	7.088389	31.16414
1667	6.05853	3.1012309	41.6603	41.4273	7.087719	31.16120
1668	6.06427	3.1013475	41.4655	41.2335	7.086930	31.15732
1669	6.07017	3.1014827	41.2678	41.0370	7.086112	31.15350
1670	6.07631	3.1015809	41.0761	40.8464	7.085281	31.14903
1671	6.08231	3.1017283	40.8875	40.6588	7.084445	31.14525
1672	6.08805	3.1019187	40.6896	40.4621	7.083618	31.14219
1673	6.09461	3.1020846	40.4949	40.2685	7.082701	31.13810
1674	6.10402	3.1022320	40.2942	40.0689	7.081435	31.13120
1675	6.11683	3.1021949	40.0963	39.8721	7.079833	31.11913
1676	6.13215	3.1020533	39.9047	39.6816	7.077972	31.10361
1677	6.15057	3.1018195	39.7069	39.4849	7.075766	31.08424
1678	6.17562	3.1015118	39.5122	39.2914	7.072764	31.05801
1679	6.20931	3.1016712	39.3082	39.0885	7.068438	31.02910
1680	6.24613	3.1019044	39.1106	38.8920	7.063684	30.99819
1681	6.27895	3.1020700	38.9219	38.7044	7.059471	30.97022
1682	6.30632	3.1020819	38.7180	38.5017	7.056023	30.94555
1683	6.32743	3.1021984	38.5263	38.3111	7.053311	30.92775
1684	6.34390	3.1023458	38.3255	38.1114	7.051166	30.91452
1685	6.35653	3.1025546	38.1336	37.9206	7.049472	30.90545
1686	6.36681	3.1026958	37.9300	37.7182	7.048107	30.89778
1687	6.37659	3.1027510	37.7322	37.5215	7.046850	30.88962
1688	6.38611	3.1028430	37.5344	37.3248	7.045606	30.88210
1689	6.39660	3.1028429	37.3458	37.1373	7.044287	30.87268
1690	6.40761	3.1028796	37.1449	36.9376	7.042885	30.86321
1691	6.41822	3.1030208	36.9472	36.7410	7.041482	30.85526
1692	6.42846	3.1031990	36.7341	36.5290	7.040105	30.84805
1693	6.43820	3.1033709	36.5302	36.3263	7.038795	30.84124
1694	6.44671	3.1035245	36.3326	36.1298	7.037649	30.83532
1695	6.45353	3.1037888	36.1409	35.9392	7.036659	30.83216
1696	6.45979	3.1039362	35.9369	35.7363	7.035798	30.82822
1697	6.46533	3.1042005	35.7452	35.5457	7.034968	30.82621
1698	6.47117	3.1044094	35.5505	35.3522	7.034128	30.82331
1699	6.47733	3.1044031	35.3436	35.1464	7.033357	30.81778
1700	6.48431	3.1043784	35.1579	34.9618	7.032494	30.81130
1701	6.49339	3.1044644	34.9572	34.7622	7.031311	30.80414
1702	6.50381	3.1045564	34.7684	34.5744	7.029959	30.79584
1703	6.51536	3.1047899	34.5616	34.3688	7.028395	30.78809
1704	6.53123	3.1051156	34.3606	34.1690	7.026246	30.77746
1705	6.55410	3.1052998	34.1598	33.9693	7.023296	30.75898
1706	6.58063	3.1053794	33.9743	33.7849	7.019943	30.73609
1707	6.60301	3.1055575	33.7735	33.5852	7.017061	30.71803
1708	6.62267	3.1056433	33.5664	33.3793	7.014564	30.70142
1709	6.64255	3.1056738	33.3750	33.1890	7.012070	30.68402
1710	6.66759	3.1059379	33.1770	32.9921	7.008818	30.66457
1711	6.69656	3.1062328	32.9731	32.7893	7.005064	30.64196
1712	6.72731	3.1066138	32.7754	32.5927	7.001049	30.61872
1713	6.76077	3.1068225	32.5716	32.3901	6.996787	30.59123
1714	6.79261	3.1067606	32.3709	32.1905	6.992863	30.56229
1715	6.82426	3.1067910	32.1789	31.9996	6.988920	30.53455
1716	6.85272	3.1067906	31.9813	31.8031	6.985389	30.50934
1717	6.87804	3.1066673	31.7772	31.6002	6.982310	30.48562
1718	6.89846	3.1066424	31.5765	31.4007	6.979791	30.46735
1719	6.91484	3.1065561	31.3786	31.2039	6.977803	30.45199
1720	6.92708	3.1063898	31.1779	31.0043	6.976367	30.43945
1721	6.93730	3.1063466	30.9771	30.8046	6.975121	30.43003
1722	6.94653	3.1063772	30.7823	30.6109	6.973960	30.42229
1723	6.95706	3.1063217	30.5783	30.4081	6.972681	30.41247
1724	6.96859	3.1063461	30.3776	30.2085	6.971241	30.40264
1725	6.98328	3.1065550	30.1798	30.0118	6.969320	30.39202
1726	7.00188	3.1068193	29.9757	29.8089	6.966890	30.37856
1727	7.02355	3.1070527	29.7689	29.6032	6.964097	30.36207
1728	7.05018	3.1071139	29.5712	29.4067	6.960779	30.33937
1729	7.08218	3.1073534	29.3735	29.2101	6.956714	30.31390
1730	7.12844	3.1075559	29.1727	29.0104	6.950916	30.27556
1731	7.17448	3.1079675	28.9687	28.8075	6.945048	30.23974
1732	7.22001	3.1084407	28.7586	28.5987	6.939222	30.20511
1733	7.26417	3.1086247	28.5611	28.4022	6.933710	30.16862
1734	7.29624	3.1087966	28.3570	28.1993	6.929691	30.14261
1735	7.31969	3.1092085	28.1533	27.9967	6.926616	30.12670
1736	7.34279	3.1094051	27.9463	27.7909	6.923689	30.10882
1737	7.36842	3.1095586	27.7486	27.5943	6.920475	30.08828
1738	7.39501	3.1099766	27.5449	27.3918	6.917019	30.06977
1739	7.42576	3.1103085	27.3042	27.1524	6.913097	30.04677
1740	7.45743	3.1108620	27.1034	26.9527	6.908962	30.02535
1741	7.48539	3.1108309	26.8873	26.7378	6.905560	30.00094
1742	7.50374	3.1112429	26.6925	26.5441	6.903122	29.98957
1743	7.51963	3.1114827	26.4795	26.3324	6.901067	29.97850
1744	7.53300	3.1116856	26.2848	26.1387	6.899338	29.96922
1745	7.54321	3.1118024	26.0778	25.9329	6.898035	29.96175
1746	7.55032	3.1118022	25.8680	25.7243	6.897165	29.95571
1747	7.55469	3.1117775	25.6640	25.5214	6.896641	29.95177
1748	7.55743	3.1118697	25.4632	25.3218	6.896259	29.95048
1749	7.56006	3.1119497	25.2502	25.1099	6.895897	29.94915
1750	7.56286	3.1119803	25.0493	24.9102	6.895539	29.94716
1751	7.56517	3.1120418	24.8392	24.7013	6.895223	29.94591
1752	7.56681	3.1120848	24.6354	24.4986	6.895000	29.94505
1753	7.56897	3.1121894	24.4376	24.3019	6.894684	29.94439
1754	7.57213	3.1122754	24.2309	24.0964	6.894254	29.94267
1755	7.57972	3.1124907	24.0207	23.8874	6.893225	29.93852
1756	7.59753	3.1128413	23.8169	23.6847	6.890888	29.92700
1757	7.62881	3.1132841	23.6069	23.4759	6.886872	29.90491
1758	7.67115	3.1135853	23.4030	23.2731	6.881584	29.87185
1759	7.71644	3.1140526	23.1961	23.0673	6.875865	29.83809
1760	7.76024	3.1144338	22.9952	22.8676	6.870374	29.80475
1761	7.79869	3.1146734	22.7853	22.6589	6.865603	29.77455
1762	7.83299	3.1144021	22.5784	22.4531	6.861578	29.74254
1763	7.86163	3.1148451	22.3713	22.2472	6.857905	29.72292
1764	7.88727	3.1153003	22.1613	22.0384	6.854592	29.70601
1765	7.91352	3.1152939	21.9575	21.8357	6.851423	29.68374
1766	7.94467	3.1147886	21.7507	21.6300	6.847897	29.65209
1767	7.98239	3.1141048	21.5406	21.4211	6.843663	29.61305
1768	8.02020	3.1134826	21.3368	21.2185	6.839394	29.57464
1769	8.05591	3.1130698	21.1268	21.0096	6.835282	29.54028
1770	8.09565	3.1130078	20.9198	20.8038	6.830527	29.50625
1771	8.13982	3.1137644	20.6945	20.5798	6.824868	29.47714
1772	8.19298	3.1149643	20.4969	20.3833	6.817936	29.44518
1773	8.24914	3.1157887	20.2930	20.1805	6.810825	29.40685
1774	8.29912	3.1163546	20.0768	19.9656	6.804584	29.37110
1775	8.33776	3.1164712	19.8729	19.7628	6.799909	29.34017
1776	8.36317	3.1167972	19.6630	19.5540	6.796723	29.32249
1777	8.38225	3.1167970	19.4437	19.3360	6.794442	29.30671
1778	8.39769	3.1168891	19.2368	19.1303	6.792555	29.29492
1779	8.41436	3.1172707	19.0239	18.9185	6.790390	29.28512
1780	8.43320	3.1180095	18.8078	18.7036	6.787806	29.27724
1781	8.45140	3.1183234	18.5979	18.4949	6.785492	29.26548
1782	8.46923	3.1186311	18.3939	18.2921	6.783227	29.25398
1783	8.49117	3.1187787	18.1869	18.0862	6.780546	29.23742
1784	8.51603	3.1189508	17.9741	17.8746	6.777508	29.21871
1785	8.54123	3.1193694	17.7580	17.6597	6.774320	29.20230
1786	8.56698	3.1196955	17.5327	17.4356	6.771111	29.18449
1787	8.59324	3.1199971	17.3106	17.2148	6.767854	29.16603
1788	8.61925	3.1202000	17.1037	17.0090	6.764675	29.14677
1789	8.64089	3.1204708	16.8875	16.7941	6.761984	29.13184
1790	8.66308	3.1209141	16.6744	16.5821	6.759153	29.11824
1791	8.69103	3.1212034	16.4524	16.3614	6.755711	29.09834
1792	8.72735	3.1217698	16.2484	16.1585	6.751158	29.07444
1793	8.77190	3.1220096	16.0323	15.9436	6.745783	29.04049
1794	8.81667	3.1223295	15.8162	15.7287	6.740353	29.00724
1795	8.86159	3.1226310	15.5971	15.5108	6.734919	28.97375
1796	8.90167	3.1228955	15.3993	15.3141	6.730078	28.94388
1797	8.93322	3.1232217	15.1773	15.0933	6.726217	28.92163
1798	8.95820	3.1234556	14.9581	14.8754	6.723173	28.90381
1799	8.98139	3.1238190	14.7480	14.6665	6.720284	28.88878
1800	9.00470	3.1240837	14.5412	14.4608	6.717426	28.87265
1801	9.02831	3.1241080	14.3251	14.2459	6.714641	28.85386
1802	9.05209	3.1238181	14.1029	14.0250	6.711975	28.83173
1803	9.07298	3.1235466	13.8929	13.8161	6.709640	28.81215
1804	9.09350	3.1236079	13.6674	13.5919	6.707204	28.79628
1805	9.11875	3.1235152	13.4485	13.3742	6.704283	28.77505
1806	9.14609	3.1234286	13.2325	13.1594	6.701116	28.75221
1807	9.17565	3.1240815	13.0195	12.9476	6.697370	28.73514
1808	9.21242	3.1253570	12.8034	12.7326	6.692515	28.71861
1809	9.26478	3.1262380	12.5933	12.5237	6.686017	28.68558
1810	9.33313	3.1264592	12.3711	12.3027	6.677952	28.63316
1811	9.40678	3.1263967	12.1672	12.1000	6.669405	28.57379
1812	9.47013	3.1265502	11.9511	11.8851	6.661978	28.52498
1813	9.52528	3.1266605	11.7352	11.6704	6.655530	28.48239
1814	9.57319	3.1267216	11.5129	11.4494	6.649950	28.44512
1815	9.62820	3.1299031	11.2938	11.2314	6.642229	28.43366
1816	9.71455	3.1320427	11.0686	11.0075	6.631353	28.38706
1817	9.81770	3.1337137	10.8524	10.7925	6.618770	28.32272
1818	9.92359	3.1361257	10.6395	10.5808	6.605601	28.26390
1819	10.02691	3.1396808	10.4172	10.3597	6.592291	28.21869
1820	10.13170	3.1426567	10.2011	10.1448	6.579099	28.16676
1821	10.22702	3.1452382	9.9882	9.9331	6.567189	28.11847
1822	10.30698	3.1470049	9.7691	9.7152	6.557387	28.07418
1823	10.36956	3.1471525	9.5558	9.5031	6.550235	28.02747
1824	10.41684	3.1495443	9.3368	9.2853	6.543910	28.01471
1825	10.45720	3.1499395	9.1146	9.0643	6.539188	27.98766
1826	10.48494	3.1509594	8.8985	8.8494	6.535641	27.97647
1827	10.50629	3.1527835	8.6794	8.6315	6.532491	27.97808
1828	10.52918	3.1554556	8.4665	8.4198	6.528827	27.98681
1829	10.55731	3.1575901	8.2473	8.2019	6.524794	27.98625
1830	10.59942	3.1559992	8.0373	7.9930	6.520702	27.93852
1831	10.65599	3.1506852	7.8151	7.7720	6.516484	27.84348
1832	10.71133	3.1445467	7.6021	7.5602	6.512732	27.74161
1833	10.76178	3.1387400	7.3860	7.3453	6.509391	27.64697
1834	10.80216	3.1294150	7.1668	7.1273	6.508580	27.52594
1835	10.83863	3.1247470	6.9417	6.9034	6.506341	27.45334
1836	10.86798	3.1225772	6.7223	6.6853	6.503906	27.41043
1837	10.89069	3.1229281	6.5062	6.4704	6.501213	27.39696
1838	10.90664	3.1242715	6.2963	6.2616	6.498886	27.39815
1839	10.91479	3.1267680	6.0894	6.0559	6.496977	27.41634
1840	10.91553	3.1258432	5.8731	5.8408	6.497257	27.40690
1841	10.91473	3.1243329	5.6693	5.6381	6.497944	27.39294
1842	10.91565	3.1255471	5.4654	5.4353	6.497356	27.40409
1843	10.91582	3.1282230	5.2736	5.2446	6.496271	27.42996
1844	10.91393	3.1263793	5.0880	5.0600	6.497213	27.41358
1845	10.91301	3.1246593	4.9085	4.8814	6.497996	27.39767
1846	10.91353	3.1224898	4.7288	4.7028	6.498797	27.37633
1847	10.91743	3.1213313	4.5554	4.5303	6.498817	27.36226
1848	10.91978	3.1215838	4.3819	4.3578	6.498450	27.36302
1849	10.91777	3.1190148	4.2114	4.1883	6.499693	27.33970
1850	10.91680	3.1157014	4.0411	4.0189	6.501116	27.30840
1851	10.92001	3.1131711	3.8768	3.8554	6.501757	27.28157
1852	10.92725	3.1109061	3.6972	3.6768	6.501840	27.25434
1853	10.93753	3.1089000	3.5024	3.4831	6.501478	27.22737
1854	10.94953	3.1072759	3.3107	3.2924	6.500770	27.20284
1855	10.96114	3.1064761	3.1281	3.1109	6.499779	27.18658
1856	10.97057	3.1017845	2.9392	2.9231	6.500575	27.13434
1857	10.99236	3.0959837	2.7597	2.7445	6.500417	27.06231
1858	11.02741	3.0972856	2.5709	2.5567	6.495958	27.04917
1859	11.04371	3.0996940	2.3913	2.3782	6.493173	27.06048
1860	11.04342	3.0963270	2.2087	2.1965	6.494532	27.02829
1861	11.05402	3.0931087	2.0201	2.0090	6.494607	26.98956
1862	11.07811	3.0819406	1.8254	1.8153	6.496297	26.86444
1863	11.13858	3.0593935	1.6428	1.6337	6.498350	26.60388
1864	11.26601	3.0421848	1.4570	1.4490	6.490704	26.34767
1865	11.41790	3.0306954	1.2653	1.2583	6.478041	26.13042
1866	11.55400	3.0271790	1.0764	1.0705	6.464082	26.00142
1867	11.65111	3.0269709	0.8846	0.8798	6.453259	25.93164
1868	11.70900	3.0250642	0.6961	0.6923	6.447500	25.87338
1869	11.74825	3.0233956	0.5226	0.5197	6.443741	25.83044
1870	11.77943	3.0223726	0.3855	0.3834	6.440640	25.79924
1871	11.80335	3.0214228	0.2760	0.2745	6.438325	25.77378
1872	11.82223	3.0200776	0.1818	0.1808	6.436725	25.74811
1873	11.83764	3.0168469	0.1514	0.1505	6.436228	25.70711
1874	11.85353	3.0145600	0.1484	0.1476	6.435318	25.67467
1875	11.85647	3.0160743	0.1543	0.1535	6.434416	25.68687
1876	11.82264	3.0167862	0.1484	0.1476	6.437928	25.71688
1877	11.78349	3.0176200	0.1484	0.1476	6.441991	25.75176
1878	11.74514	3.0181192	0.1514	0.1506	6.446094	25.78299
1879	11.70947	3.0194763	0.1425	0.1417	6.449573	25.82051
1880	11.67524	3.0196470	0.1486	0.1478	6.453345	25.84589
1881	11.62887	3.0227635	0.1516	0.1508	6.457355	25.90761
1882	11.58011	1.5809087	0.1485	0.1477	7.020080	12.76822
1883	11.53123	0.5089697	0.1487	0.1478	7.436084	3.77610
1884	11.49687	0.5921758	0.1395	0.1388	7.410795	4.44314
1885	11.48160	0.6800852	0.1457	0.1449	7.380300	5.15486
1886	11.47170	0.6321321	0.1397	0.1389	7.399937	4.76786
1887	11.46086	0.5764966	0.1519	0.1511	7.422547	4.32165
1888	11.44543	0.5289883	0.1459	0.1451	7.442808	3.94390
1889	11.42762	0.4830705	0.1490	0.1482	7.462820	3.58142
1890	11.40853	0.4493787	0.1459	0.1451	7.478472	3.31752
1891	11.38975	0.4190124	0.1459	0.1451	7.492825	3.08092
1892	11.37191	0.3910318	0.1398	0.1390	7.506122	2.86392
1893	11.35465	0.3649080	0.1459	0.1451	7.518619	2.66225
1894	11.33851	0.3397250	0.1459	0.1451	7.530566	2.46869
1895	11.32261	0.3205221	0.1491	0.1482	7.540273	2.32192
1896	11.30775	0.3127730	0.1521	0.1513	7.545624	2.26335
1897	11.29273	0.3137177	0.1430	0.1422	7.547840	2.27151
1898	11.27847	0.3166554	0.1461	0.1453	7.549201	2.29494
1899	11.26393	0.3195048	0.1430	0.1422	7.550641	2.31775
1900	11.24939	0.3147434	0.1462	0.1454	7.554862	2.28204
1901	11.23572	0.3036844	0.1461	0.1453	7.561237	2.19795
1902	11.22200	0.2878827	0.1431	0.1423	7.569348	2.07777
1903	11.20800	0.2710293	0.1432	0.1424	7.577881	1.94999
1904	11.19383	0.2566743	0.1493	0.1485	7.585527	1.84163
1905	11.17856	0.2472883	0.1401	0.1394	7.591558	1.77125
1906	11.16330	0.2283591	0.1432	0.1424	7.601032	1.62904
1907	11.14667	0.2268123	0.1463	0.1455	7.604471	1.61811
1908	11.13044	0.2288489	0.1463	0.1455	7.606549	1.63417
1909	11.11416	0.2285394	0.1403	0.1395	7.609483	1.63255
1910	11.09876	0.2744054	0.1493	0.1485	7.595471	1.98150
1911	11.08376	0.2814306	0.1433	0.1425	7.595487	2.03605
1912	11.06854	0.2829441	0.1432	0.1424	7.597559	2.04849
1913	11.05362	0.2804417	0.1463	0.1455	7.601056	2.03013
1914	11.04060	0.2791307	0.1463	0.1455	7.603788	2.02079
1915	11.02735	0.2734365	0.1464	0.1456	7.608170	1.97790
1916	11.01336	0.2723191	0.1495	0.1487	7.611003	1.97009
1917	11.00013	0.2721739	0.1496	0.1488	7.613350	1.96968
1918	10.98828	0.2617504	0.1467	0.1459	7.619234	1.89058
1919	10.97649	0.2515294	0.1465	0.1457	7.625030	1.81319
1920	10.96528	0.2351456	0.1405	0.1397	7.632975	1.68916
1921	10.95425	0.2174633	0.1495	0.1487	7.641346	1.55584
1922	10.94316	0.2032277	0.1465	0.1457	7.648457	1.44907
1923	10.93236	0.1917354	0.1434	0.1426	7.654511	1.36326
1924	10.92168	0.1843027	0.1465	0.1457	7.659072	1.30805
1925	10.91112	0.1910150	0.1436	0.1428	7.658501	1.35864
1926	10.90096	0.2148743	0.1434	0.1426	7.651615	1.53851
1927	10.89080	0.2343036	0.1406	0.1398	7.646289	1.68615
1928	10.88053	0.2457782	0.1527	0.1519	7.643869	1.77399
1929	10.87067	0.2457782	0.1468	0.1459	7.645593	1.77446
1930	10.86075	0.2318167	0.1438	0.1430	7.652460	1.66861
1931	10.85061	0.2184557	0.1437	0.1429	7.659136	1.56770
1932	10.84081	0.2123149	0.1345	0.1338	7.663103	1.52166
1933	10.83073	0.2435983	0.1497	0.1488	7.653384	1.75973
1934	10.82076	0.2653458	0.1406	0.1398	7.647085	1.92674
1935	10.81086	0.2743502	0.1467	0.1459	7.645472	1.99652
1936	10.80101	0.2575067	0.1406	0.1398	7.653445	1.86760
1937	10.79077	0.2385474	0.1469	0.1461	7.662252	1.72307
1938	10.78076	0.2264558	0.1438	0.1430	7.668469	1.63142
1939	10.77087	0.2169691	0.1468	0.1460	7.673700	1.55980
1940	10.76092	0.2153243	0.1468	0.1459	7.676057	1.54775
1941	10.75126	0.2482171	0.1468	0.1459	7.665611	1.79887
1942	10.74160	0.2592475	0.1407	0.1400	7.663209	1.88397
1943	10.73189	0.2581878	0.1437	0.1429	7.665307	1.87632
1944	10.72235	0.2387147	0.1437	0.1429	7.674215	1.72754
1945	10.71298	0.2194010	0.1437	0.1429	7.683008	1.58072
1946	10.70311	0.2002800	0.1499	0.1490	7.691792	1.43619
1947	10.69340	0.1867902	0.1438	0.1431	7.698457	1.33483
1948	10.68399	0.1720664	0.1438	0.1430	7.705506	1.22464
1949	10.67458	0.1813373	0.1407	0.1399	7.703792	1.29450
1950	10.66511	0.1937977	0.1437	0.1429	7.700904	1.38868
1951	10.65581	0.2055454	0.1470	0.1461	7.698226	1.47791
1952	10.64630	0.2094072	0.1407	0.1400	7.698487	1.50759
1953	10.63706	0.2140796	0.1376	0.1368	7.698395	1.54347
1954	10.62800	0.2077269	0.1377	0.1369	7.702350	1.49557
1955	10.61946	0.1949015	0.1405	0.1398	7.708600	1.39874
1956	10.61103	0.1851250	0.1438	0.1430	7.713696	1.32525
1957	10.60243	0.1681926	0.1436	0.1428	7.721436	1.19830
1958	10.59395	0.1982261	0.1468	0.1459	7.711905	1.42487
1959	10.58581	0.2100554	0.1439	0.1431	7.708973	1.51499
1960	10.57785	0.2096942	0.1436	0.1428	7.710521	1.51257
1961	10.57057	0.2168473	0.1438	0.1431	7.709158	1.56735
1962	10.56351	0.2247031	0.1407	0.1400	7.707485	1.62764
1963	10.55692	0.2371959	0.1468	0.1460	7.703990	1.72363
1964	10.55043	0.2418409	0.1407	0.1399	7.703400	1.75962
1965	10.54418	0.2358791	0.1377	0.1369	7.706740	1.71412
1966	10.53782	0.2475320	0.1467	0.1459	7.703500	1.80402
1967	10.53139	0.2407404	0.1467	0.1459	7.707186	1.75207
1968	10.52509	0.2301966	0.1499	0.1490	7.712253	1.67141
1969	10.51867	0.2221882	0.1406	0.1398	7.716387	1.61037
1970	10.51231	0.2106261	0.1436	0.1428	7.721830	1.52236
1971	10.50617	0.2020565	0.1468	0.1459	7.726112	1.45737
1972	10.49993	0.1964156	0.1436	0.1428	7.729321	1.41476
1973	10.49385	0.1913402	0.1437	0.1429	7.732288	1.37650
1974	10.48806	0.1863756	0.1376	0.1369	7.735163	1.33913
1975	10.48205	0.1842027	0.1376	0.1368	7.737043	1.32291
1976	10.47620	0.1887178	0.1437	0.1429	7.736415	1.35729
1977	10.47041	0.1998396	0.1468	0.1459	7.733317	1.44192
1978	10.46468	0.2206011	0.1377	0.1369	7.726588	1.60058
