Scan Count	Temperature [ITS-90, deg C]	Conductivity [S/m]	Pressure, Strain Gauge [db]	Depth [salt water, m]	Oxygen Saturation, Weiss [ml/l]	Salinity, Practical [PSU]
1	19.61763	0.0055373	-0.1110	-0.1104	6.398519	0.03364
2	19.62101	0.0056918	-0.1171	-0.1165	6.398054	0.03439
3	19.62447	0.0068976	-0.1141	-0.1135	6.397384	0.04034
4	19.62764	0.0095588	-0.1171	-0.1165	6.396471	0.05370
5	19.63102	0.0090758	-0.1110	-0.1104	6.396128	0.05125
6	19.63368	0.0086517	-0.1171	-0.1165	6.395869	0.04911
7	19.63714	0.0077420	-0.1111	-0.1105	6.395597	0.04454
8	19.63971	0.0069996	-0.1110	-0.1104	6.395406	0.04084
9	19.64303	0.0063874	-0.1110	-0.1104	6.395095	0.03780
10	19.64590	0.0059422	-0.1110	-0.1104	6.394808	0.03561
11	19.64892	0.0056022	-0.1141	-0.1134	6.394483	0.03395
12	19.65224	0.0054477	-0.1141	-0.1134	6.394086	0.03319
13	19.65481	0.0052159	-0.1080	-0.1074	6.393797	0.03206
14	19.65865	0.0050027	-0.1111	-0.1105	6.393344	0.03103
15	19.66174	0.0048513	-0.1111	-0.1105	6.392975	0.03029
16	19.66557	0.0047432	-0.1050	-0.1044	6.392502	0.02977
17	19.66904	0.0046691	-0.1111	-0.1105	6.392071	0.02941
18	19.67272	0.0046196	-0.1110	-0.1104	6.391607	0.02917
19	19.67567	0.0045733	-0.1141	-0.1135	6.391236	0.02895
20	19.67906	0.0045548	-0.1111	-0.1105	6.390804	0.02886
21	19.68172	0.0045424	-0.1110	-0.1104	6.390466	0.02880
22	19.68489	0.0045486	-0.1141	-0.1134	6.390058	0.02883
23	19.68769	0.0045640	-0.1110	-0.1104	6.389695	0.02890
24	19.69064	0.0045578	-0.1111	-0.1105	6.389318	0.02887
25	19.69352	0.0046721	-0.1080	-0.1075	6.388928	0.02942
26	19.69602	0.0051232	-0.1111	-0.1105	6.388524	0.03160
27	19.69861	0.0055311	-0.1111	-0.1105	6.388118	0.03358
28	19.70126	0.0060040	-0.1111	-0.1105	6.387690	0.03589
29	19.70384	0.0065141	-0.1141	-0.1135	6.387264	0.03840
30	19.70635	0.0068017	-0.1111	-0.1105	6.386888	0.03982
31	19.70864	0.0066656	-0.1111	-0.1105	6.386620	0.03915
32	19.71078	0.0065234	-0.1111	-0.1105	6.386373	0.03845
33	19.71314	0.0064121	-0.1080	-0.1074	6.386090	0.03790
34	19.71551	0.0063626	-0.1111	-0.1105	6.385797	0.03765
35	19.71772	0.0066749	-0.1172	-0.1165	6.385455	0.03919
36	19.72001	0.0069749	-0.1111	-0.1105	6.385106	0.04067
37	19.72215	0.0070986	-0.1080	-0.1075	6.384808	0.04129
38	19.72429	0.0070089	-0.1111	-0.1105	6.384550	0.04084
39	19.72621	0.0068388	-0.1111	-0.1105	6.384336	0.04000
40	19.72850	0.0066255	-0.1141	-0.1135	6.384083	0.03894
41	19.73071	0.0063905	-0.1172	-0.1166	6.383843	0.03778
42	19.73271	0.0061833	-0.1083	-0.1077	6.383626	0.03676
43	19.73455	0.0059638	-0.1083	-0.1077	6.383430	0.03569
44	19.73670	0.0058093	-0.1052	-0.1046	6.383184	0.03493
45	19.73884	0.0056702	-0.1112	-0.1106	6.382936	0.03425
46	19.74091	0.0055404	-0.1112	-0.1106	6.382695	0.03362
47	19.74342	0.0058958	-0.1112	-0.1106	6.382307	0.03535
48	19.74519	0.0095557	-0.1113	-0.1106	6.381392	0.05359
49	19.74741	0.0143698	-0.1174	-0.1167	6.380177	0.07825
50	19.74948	0.0136686	-0.1204	-0.1197	6.380049	0.07462
51	19.75125	0.0139726	-0.1204	-0.1197	6.379763	0.07619
52	19.75317	0.0149564	-0.1144	-0.1137	6.379325	0.08129
53	19.75517	0.0146150	-0.1114	-0.1107	6.379136	0.07951
54	19.75731	0.0139602	-0.1083	-0.1077	6.378990	0.07612
55	19.75908	0.0133118	-0.1082	-0.1076	6.378890	0.07277
56	19.76130	0.0127287	-0.1082	-0.1076	6.378719	0.06976
57	19.76359	0.0122264	-0.1142	-0.1136	6.378524	0.06718
58	19.76633	0.0118389	-0.1142	-0.1136	6.378249	0.06519
59	19.76891	0.0115259	-0.1202	-0.1196	6.377978	0.06358
60	19.77187	0.0111447	-0.1111	-0.1105	6.377674	0.06163
61	19.77431	0.0107636	-0.1081	-0.1075	6.377435	0.05969
62	19.77705	0.0103764	-0.1110	-0.1104	6.377159	0.05772
63	19.77956	0.0099954	-0.1141	-0.1135	6.376911	0.05578
64	19.78208	0.0096393	-0.1111	-0.1105	6.376657	0.05398
65	19.78430	0.0093297	-0.1111	-0.1105	6.376432	0.05241
66	19.78637	0.0090449	-0.1111	-0.1105	6.376222	0.05098
67	19.78836	0.0088127	-0.1080	-0.1074	6.376010	0.04981
68	19.79029	0.0085867	-0.1050	-0.1045	6.375807	0.04867
69	19.79243	0.0083825	-0.1111	-0.1105	6.375572	0.04765
70	19.79428	0.0082030	-0.1020	-0.1014	6.375369	0.04675
71	19.79591	0.0080483	-0.1111	-0.1105	6.375190	0.04597
72	19.79776	0.0079091	-0.1141	-0.1135	6.374980	0.04528
73	19.79954	0.0077606	-0.1080	-0.1075	6.374781	0.04453
74	19.80109	0.0076275	-0.1111	-0.1105	6.374608	0.04387
75	19.80272	0.0075038	-0.1111	-0.1105	6.374423	0.04325
76	19.80435	0.0074017	-0.1172	-0.1165	6.374234	0.04275
77	19.80575	0.0073677	-0.1111	-0.1105	6.374061	0.04258
78	19.80701	0.0083175	-0.1141	-0.1135	6.373721	0.04731
79	19.80857	0.0115073	-0.1111	-0.1105	6.372915	0.06345
80	19.80997	0.0158289	-0.1081	-0.1075	6.371895	0.08573
81	19.81138	0.0157482	-0.1111	-0.1105	6.371732	0.08531
82	19.81264	0.0157109	-0.1111	-0.1105	6.371578	0.08511
83	19.81397	0.0164346	-0.1111	-0.1105	6.371266	0.08888
84	19.81508	0.0181748	-0.1172	-0.1165	6.370782	0.09798
85	19.81619	0.0179945	-0.1080	-0.1074	6.370676	0.09703
86	19.81730	0.0174288	-0.1111	-0.1105	6.370645	0.09407
87	19.81856	0.0209404	-0.1111	-0.1105	6.369790	0.11252
88	19.81974	0.0211739	-0.1141	-0.1135	6.369592	0.11375
89	19.82056	0.0200192	-0.1141	-0.1135	6.369718	0.10766
90	19.82204	0.0194592	-0.1111	-0.1105	6.369640	0.10471
91	19.82285	0.0180754	-0.1081	-0.1075	6.369809	0.09744
92	19.82434	0.0166023	-0.1050	-0.1045	6.369910	0.08974
93	19.82559	0.0155774	-0.1111	-0.1105	6.369951	0.08440
94	19.82663	0.0148447	-0.1081	-0.1075	6.369962	0.08060
95	19.82819	0.0137368	-0.1142	-0.1135	6.369979	0.07487
96	19.82952	0.0139509	-0.1111	-0.1105	6.369767	0.07597
97	19.83115	0.0149875	-0.1111	-0.1105	6.369357	0.08133
98	19.83270	0.0143853	-0.1080	-0.1074	6.369276	0.07821
99	19.83382	0.0152327	-0.1080	-0.1075	6.368969	0.08260
100	19.83596	0.0172020	-0.1142	-0.1135	6.368309	0.09285
101	19.83811	0.0174754	-0.1111	-0.1105	6.367982	0.09427
102	19.84026	0.0183179	-0.1050	-0.1044	6.367542	0.09868
103	19.84174	0.0187034	-0.1050	-0.1044	6.367277	0.10070
104	19.84360	0.0198014	-0.1111	-0.1105	6.366823	0.10646
105	19.84530	0.0194250	-0.1111	-0.1105	6.366681	0.10448
106	19.84723	0.0179292	-0.1141	-0.1135	6.366730	0.09663
107	19.84886	0.0167887	-0.1111	-0.1105	6.366747	0.09067
108	19.85019	0.0159469	-0.1141	-0.1135	6.366742	0.08628
109	19.85138	0.0168788	-0.1080	-0.1075	6.366408	0.09113
110	19.85301	0.0204020	-0.1111	-0.1105	6.365505	0.10961
111	19.85442	0.0212953	-0.1141	-0.1135	6.365148	0.11432
112	19.85605	0.0208502	-0.1172	-0.1165	6.365029	0.11196
113	19.85738	0.0211085	-0.1141	-0.1135	6.364807	0.11332
114	19.85864	0.0203179	-0.1080	-0.1075	6.364804	0.10915
115	19.86005	0.0204518	-0.1080	-0.1074	6.364598	0.10985
116	19.86161	0.0199259	-0.1081	-0.1075	6.364504	0.10708
117	19.86301	0.0189740	-0.1141	-0.1135	6.364513	0.10207
118	19.86450	0.0185759	-0.1050	-0.1044	6.364402	0.09998
119	19.86554	0.0170870	-0.1050	-0.1045	6.364563	0.09219
120	19.86694	0.0163383	-0.1080	-0.1074	6.364530	0.08829
121	19.86828	0.0156333	-0.1141	-0.1135	6.364498	0.08462
122	19.86932	0.0150589	-0.1141	-0.1135	6.364478	0.08164
123	19.87043	0.0149564	-0.1141	-0.1135	6.364356	0.08111
124	19.87176	0.0150061	-0.1111	-0.1105	6.364176	0.08136
125	19.87273	0.0154811	-0.1141	-0.1135	6.363961	0.08383
126	19.87354	0.0170466	-0.1111	-0.1105	6.363551	0.09197
127	19.87466	0.0177117	-0.1141	-0.1135	6.363278	0.09544
128	19.87555	0.0177023	-0.1080	-0.1074	6.363167	0.09539
129	19.87629	0.0172268	-0.1081	-0.1075	6.363166	0.09290
130	19.87762	0.0170466	-0.1111	-0.1105	6.363031	0.09196
131	19.87866	0.0171926	-0.1111	-0.1105	6.362870	0.09272
132	19.87918	0.0171678	-0.1111	-0.1105	6.362809	0.09259
133	19.88022	0.0175749	-0.1111	-0.1105	6.362597	0.09471
134	19.88126	0.0168943	-0.1111	-0.1105	6.362598	0.09116
135	19.88200	0.0168477	-0.1081	-0.1075	6.362513	0.09092
136	19.88304	0.0158351	-0.1080	-0.1074	6.362579	0.08565
137	19.88371	0.0148323	-0.1080	-0.1074	6.362689	0.08045
138	19.88460	0.0145871	-0.1111	-0.1105	6.362624	0.07918
139	19.88534	0.0148136	-0.1141	-0.1135	6.362485	0.08035
140	19.88623	0.0150061	-0.1050	-0.1044	6.362334	0.08134
141	19.88705	0.0149223	-0.1141	-0.1135	6.362247	0.08091
142	19.88779	0.0147888	-0.1172	-0.1165	6.362178	0.08022
143	19.88860	0.0147050	-0.1141	-0.1135	6.362091	0.07978
144	19.88972	0.0144908	-0.1111	-0.1105	6.361991	0.07867
145	19.89038	0.0143698	-0.1141	-0.1135	6.361929	0.07805
146	19.89120	0.0144257	-0.1081	-0.1075	6.361814	0.07833
147	19.89179	0.0154252	-0.1050	-0.1044	6.361544	0.08351
148	19.89239	0.0172113	-0.1111	-0.1105	6.361119	0.09279
149	19.89358	0.0194281	-0.1081	-0.1075	6.360532	0.10440
150	19.89402	0.0208595	-0.1080	-0.1074	6.360192	0.11193
151	19.89469	0.0208004	-0.1080	-0.1075	6.360119	0.11161
152	19.89551	0.0206012	-0.1050	-0.1044	6.360055	0.11056
153	19.89580	0.0211584	-0.1080	-0.1075	6.359907	0.11350
154	19.89662	0.0219368	-0.1050	-0.1044	6.359648	0.11761
155	19.89744	0.0224009	-0.1111	-0.1105	6.359452	0.12006
156	19.89795	0.0225162	-0.1111	-0.1105	6.359363	0.12067
157	19.89840	0.0224663	-0.1141	-0.1135	6.359317	0.12040
158	19.89951	0.0218558	-0.1111	-0.1105	6.359296	0.11717
159	19.90026	0.0213452	-0.1050	-0.1044	6.359303	0.11447
160	19.90092	0.0214635	-0.1141	-0.1135	6.359195	0.11510
161	19.90115	0.0215725	-0.1142	-0.1135	6.359145	0.11567
162	19.90211	0.0214541	-0.1111	-0.1105	6.359046	0.11504
163	19.90293	0.0210930	-0.1111	-0.1105	6.359013	0.11314
164	19.90360	0.0205856	-0.1142	-0.1135	6.359029	0.11046
165	19.90434	0.0202153	-0.1111	-0.1105	6.359008	0.10851
166	19.90538	0.0192974	-0.1141	-0.1135	6.359057	0.10368
167	19.90612	0.0187314	-0.1141	-0.1135	6.359074	0.10072
168	19.90679	0.0188060	-0.1080	-0.1074	6.358974	0.10110
169	19.90775	0.0185759	-0.1141	-0.1135	6.358897	0.09990
170	19.90879	0.0182401	-0.1111	-0.1105	6.358831	0.09814
171	19.91013	0.0178640	-0.1080	-0.1075	6.358734	0.09617
172	19.91080	0.0174941	-0.1050	-0.1044	6.358722	0.09424
173	19.91191	0.0171056	-0.1111	-0.1105	6.358657	0.09221
174	19.85175	0.4124762	-0.0715	-0.0711	6.278152	2.45147
175	18.57560	0.9608428	0.0106	0.0105	6.297527	6.24099
176	16.89435	2.5456653	0.1080	0.1074	6.044476	18.72380
177	15.71422	2.5940549	0.2115	0.2103	6.155455	19.68582
178	14.76222	2.6303501	0.3119	0.3101	6.247616	20.47709
179	14.06835	2.6552927	0.4183	0.4160	6.316318	21.06279
180	13.61539	2.6750804	0.5066	0.5038	6.360427	21.48630
181	13.33616	2.6866757	0.5948	0.5916	6.387990	21.74653
182	13.16699	2.6965726	0.6983	0.6944	6.403730	21.93151
183	13.06985	2.6839223	0.7865	0.7822	6.419326	21.87414
184	13.04801	2.6904028	0.8413	0.8367	6.419511	21.94476
185	13.12539	2.7034849	0.8534	0.8487	6.406011	22.01728
186	13.35885	2.7091445	0.8565	0.8518	6.377513	21.93340
187	13.52629	2.7173889	0.8626	0.8578	6.355748	21.91078
188	13.63319	2.7257543	0.8565	0.8518	6.340846	21.92379
189	13.71996	2.7192833	0.8595	0.8548	6.333378	21.81727
190	13.72616	2.7136783	0.8626	0.8578	6.334620	21.76434
191	13.58884	2.7130947	0.8686	0.8639	6.350215	21.83709
192	13.42332	2.7165531	0.8595	0.8548	6.367632	21.96231
193	13.25221	2.7203762	0.8534	0.8488	6.385617	22.09496
194	13.09999	2.7230415	0.8504	0.8458	6.401935	22.20724
195	12.96958	2.7256255	0.8565	0.8518	6.415852	22.30674
196	12.86788	2.7292768	0.8626	0.8578	6.426142	22.39950
197	12.79383	2.7341610	0.8717	0.8669	6.432841	22.48745
198	12.74578	2.7209192	0.8717	0.8669	6.443146	22.39611
199	12.71901	2.6890999	0.8717	0.8669	6.457786	22.12400
200	12.71431	2.7013513	0.8687	0.8639	6.453874	22.23758
201	12.70413	2.7320274	0.8626	0.8578	6.443888	22.52143
202	12.67534	2.7421128	0.8504	0.8457	6.443516	22.63009
203	12.64519	2.7429938	0.8504	0.8457	6.446651	22.65614
204	12.62084	2.7441097	0.8443	0.8397	6.449036	22.68089
205	12.60456	2.7459305	0.8474	0.8427	6.450239	22.70722
206	12.59494	2.7472641	0.8504	0.8457	6.450854	22.72513
207	12.58612	2.7465298	0.8504	0.8457	6.452136	22.72376
208	12.57525	2.7442745	0.8565	0.8518	6.454209	22.70977
209	12.56402	2.7434290	0.8656	0.8609	6.455808	22.70882
210	12.55586	2.7450499	0.8747	0.8699	6.456152	22.72849
211	12.55274	2.7480752	0.8778	0.8730	6.455402	22.75792
212	12.55328	2.7496559	0.8778	0.8730	6.454760	22.77199
213	12.55226	2.7470177	0.8748	0.8700	6.455844	22.74858
214	12.54728	2.7446447	0.8687	0.8639	6.457286	22.72997
215	12.53775	2.7440576	0.8565	0.8518	6.458598	22.73036
216	12.52995	2.7435644	0.8565	0.8518	6.459675	22.73057
217	12.52378	2.7437054	0.8534	0.8488	6.460334	22.73557
218	12.51832	2.7439814	0.8443	0.8397	6.460860	22.74138
219	12.51682	2.7447331	0.8504	0.8458	6.460756	22.74913
220	12.51544	2.7449798	0.8443	0.8397	6.460824	22.75221
221	12.51287	2.7448976	0.8413	0.8367	6.461150	22.75302
222	12.50897	2.7456788	0.8534	0.8488	6.461312	22.76249
223	12.50759	2.7487043	0.8596	0.8548	6.460359	22.79091
224	12.51167	2.7537417	0.8717	0.8669	6.458040	22.83438
225	12.52587	2.7582176	0.8778	0.8730	6.454766	22.86659
226	12.54950	2.7610596	0.8808	0.8760	6.451014	22.87818
227	12.56708	2.7585761	0.8808	0.8760	6.449909	22.84491
228	12.56444	2.7484570	0.8687	0.8639	6.453918	22.75435
229	12.54812	2.7447093	0.8717	0.8669	6.457166	22.73005
230	12.53217	2.7441105	0.8595	0.8548	6.459220	22.73420
231	12.52144	2.7436408	0.8474	0.8427	6.460626	22.73639
232	12.51568	2.7414509	0.8321	0.8276	6.462092	22.71990
233	12.50927	2.7383051	0.8321	0.8276	6.463986	22.69509
234	12.50190	2.7373605	0.8322	0.8276	6.465182	22.69092
235	12.49615	2.7389566	0.8383	0.8337	6.465258	22.70893
236	12.49657	2.7455203	0.8535	0.8488	6.462797	22.76853
237	12.51778	2.7628376	0.8687	0.8639	6.453998	22.91364
238	12.56510	2.7737184	0.8778	0.8730	6.444590	22.98410
239	12.57873	2.7770736	0.8839	0.8790	6.441805	23.00638
240	12.57105	2.7784304	0.8778	0.8730	6.442186	23.02343
241	12.56240	2.7705060	0.8626	0.8578	6.446075	22.95646
242	12.55526	2.7656518	0.8626	0.8579	6.448671	22.91655
243	12.56126	2.7710836	0.8596	0.8548	6.445994	22.96242
244	12.56931	2.7808436	0.8596	0.8549	6.441501	23.04650
245	12.58413	2.7858906	0.8474	0.8427	6.437962	23.08347
246	12.59729	2.7844439	0.8535	0.8488	6.436991	23.06224
247	12.60600	2.7812563	0.8504	0.8458	6.437163	23.02789
248	12.61020	2.7842607	0.8474	0.8428	6.435585	23.05269
249	12.61477	2.7944634	0.8596	0.8548	6.431339	23.14286
250	12.62445	2.8017560	0.8656	0.8609	6.427576	23.20338
251	12.63245	2.8022590	0.8687	0.8639	6.426484	23.20306
252	12.63521	2.8038688	0.8748	0.8700	6.425583	23.21602
253	12.64760	2.8053190	0.8718	0.8670	6.423648	23.22163
254	12.67576	2.8050641	0.8687	0.8639	6.420546	23.20202
255	12.69503	2.8062658	0.8778	0.8730	6.417925	23.20113
256	12.71076	2.8097717	0.8718	0.8670	6.414869	23.22338
257	12.73842	2.8124731	0.8657	0.8609	6.410758	23.23097
258	12.77710	2.8137884	0.8596	0.8549	6.405911	23.21921
259	12.80911	2.8133377	0.8474	0.8428	6.402461	23.19551
260	12.82271	2.8114413	0.8444	0.8398	6.401612	23.16999
261	12.82029	2.8115006	0.8505	0.8458	6.401863	23.17201
262	12.81400	2.8147364	0.8535	0.8488	6.401403	23.20521
263	12.81618	2.8201027	0.8626	0.8579	6.399219	23.25257
264	12.83359	2.8228434	0.8718	0.8670	6.396268	23.26675
265	12.85838	2.8233179	0.8839	0.8791	6.393306	23.25584
266	12.88241	2.8242435	0.8779	0.8731	6.390271	23.24951
267	12.90149	2.8245223	0.8840	0.8791	6.388026	23.24034
268	12.91621	2.8247477	0.8809	0.8761	6.386292	23.23337
269	12.92506	2.8243025	0.8718	0.8670	6.385458	23.22393
270	12.92627	2.8244983	0.8627	0.8579	6.385251	23.22497
271	12.92445	2.8223086	0.8505	0.8458	6.386242	23.20626
272	12.91760	2.8143679	0.8444	0.8398	6.389866	23.13859
273	12.89428	2.8064120	0.8505	0.8458	6.395354	23.08079
274	12.85560	2.8041213	0.8596	0.8549	6.400542	23.08357
275	12.82355	2.8067620	0.8688	0.8640	6.403207	23.12703
276	12.81310	2.8096049	0.8749	0.8701	6.403361	23.15920
277	12.82101	2.8106889	0.8840	0.8792	6.402075	23.16419
278	12.83298	2.8104400	0.8810	0.8761	6.400815	23.15462
279	12.83746	2.8094625	0.8749	0.8701	6.400663	23.14303
280	12.82899	2.8095455	0.8688	0.8640	6.401588	23.14895
281	12.81261	2.8111096	0.8688	0.8640	6.402871	23.17315
282	12.79950	2.8131718	0.8719	0.8671	6.403605	23.19988
283	12.79383	2.8164380	0.8688	0.8641	6.403065	23.23301
284	12.79630	2.8186734	0.8689	0.8641	6.401977	23.25179
285	12.80409	2.8195986	0.8628	0.8580	6.400763	23.25541
286	12.81177	2.8200434	0.8689	0.8641	6.399738	23.25473
287	12.81666	2.8195629	0.8628	0.8581	6.399360	23.24737
288	12.81799	2.8196222	0.8658	0.8611	6.399188	23.24709
289	12.81660	2.8226775	0.8719	0.8672	6.398241	23.27567
290	12.81823	2.8269331	0.8719	0.8672	6.396520	23.31330
291	12.82663	2.8305851	0.8781	0.8732	6.394255	23.34128
292	12.83951	2.8330029	0.8811	0.8762	6.391935	23.35529
293	12.85312	2.8341258	0.8811	0.8763	6.390001	23.35710
294	12.86619	2.8335374	0.8811	0.8762	6.388745	23.34372
295	12.87817	2.8325510	0.8720	0.8672	6.387755	23.32740
296	12.88756	2.8332817	0.8690	0.8642	6.386438	23.32826
297	12.89531	2.8360392	0.8629	0.8581	6.384576	23.34848
298	12.90506	2.8374480	0.8568	0.8521	6.382976	23.35525
299	12.91651	2.8352782	0.8538	0.8491	6.382472	23.32855
300	12.92512	2.8291529	0.8538	0.8491	6.383708	23.26781
301	12.92209	2.8278880	0.8599	0.8551	6.384503	23.25821
302	12.91336	2.8350286	0.8721	0.8673	6.382915	23.32822
303	12.91718	2.8419318	0.8812	0.8764	6.380006	23.38841
304	12.92767	2.8441628	0.8812	0.8763	6.378031	23.40216
305	12.93567	2.8448351	0.8873	0.8824	6.376894	23.40332
306	12.94404	2.8440198	0.8843	0.8794	6.376251	23.39078
307	12.95586	2.8426096	0.8873	0.8825	6.375433	23.37073
308	12.96982	2.8409142	0.8782	0.8734	6.374480	23.34681
309	12.98257	2.8395046	0.8691	0.8643	6.373559	23.32624
310	12.99271	2.8389990	0.8661	0.8613	6.372607	23.31544
311	13.00109	2.8390822	0.8630	0.8583	6.371640	23.31106
312	13.00935	2.8407473	0.8600	0.8553	6.370121	23.32104
313	13.02035	2.8420439	0.8661	0.8614	6.368428	23.32601
314	13.03372	2.8432574	0.8570	0.8523	6.366502	23.32877
315	13.04807	2.8445544	0.8692	0.8644	6.364437	23.33168
316	13.06316	2.8463932	0.8753	0.8705	6.362099	23.33903
317	13.07819	2.8479170	0.8844	0.8796	6.359880	23.34356
318	13.09225	2.8492207	0.8905	0.8856	6.357850	23.34669
319	13.10504	2.8498101	0.8905	0.8856	6.356216	23.34417
320	13.11662	2.8498993	0.8875	0.8826	6.354896	23.33788
321	13.12802	2.8502386	0.8875	0.8827	6.353508	23.33395
322	13.13917	2.8512569	0.8814	0.8766	6.351906	23.33630
323	13.14954	2.8511973	0.8754	0.8706	6.350774	23.32941
324	13.15960	2.8473209	0.8632	0.8585	6.351032	23.28835
325	13.16802	2.8402641	0.8602	0.8555	6.352599	23.21969
326	13.16497	2.8339566	0.8419	0.8373	6.355177	23.16479
327	13.14503	2.8308079	0.8450	0.8404	6.358518	23.14857
328	13.11759	2.8295431	0.8633	0.8585	6.362029	23.15385
329	13.08842	2.8298819	0.8755	0.8707	6.365166	23.17465
330	13.06504	2.8362635	0.8937	0.8888	6.365502	23.24645
331	13.06699	2.8454588	0.9029	0.8979	6.362005	23.32823
332	13.08750	2.8498400	0.9090	0.9040	6.358158	23.35519
333	13.14771	2.8486784	0.8999	0.8949	6.351873	23.30784
334	13.41503	2.8440988	0.8877	0.8828	6.323859	23.10428
335	13.78416	2.8386230	0.8786	0.8738	6.285157	22.83464
336	14.10554	2.8334963	0.8695	0.8647	6.251846	22.60025
337	14.34652	2.8297277	0.8665	0.8617	6.227003	22.42732
338	14.52481	2.8274517	0.8604	0.8557	6.208539	22.30499
339	14.64506	2.8264414	0.8574	0.8527	6.195957	22.22755
340	14.71605	2.8264110	0.8635	0.8588	6.188362	22.18691
341	14.75405	2.8267491	0.8696	0.8648	6.184186	22.16826
342	14.76764	2.8271170	0.8757	0.8709	6.182612	22.16373
343	14.77160	2.8268320	0.8939	0.8890	6.182283	22.15902
344	14.77415	2.8255141	0.9031	0.8981	6.182441	22.14621
345	14.77134	2.8224875	0.9031	0.8981	6.183731	22.12169
346	14.75864	2.8182641	0.8970	0.8921	6.186472	22.09245
347	14.74920	2.8155545	0.8880	0.8831	6.188370	22.07442
348	14.73498	2.8137408	0.8758	0.8710	6.190488	22.06680
349	14.68286	2.8133205	0.8667	0.8619	6.196217	22.09264
350	14.61823	2.8133508	0.8575	0.8528	6.203151	22.12952
351	14.56762	2.8136001	0.8515	0.8468	6.208515	22.16042
352	14.53622	2.8141872	0.8606	0.8559	6.211703	22.18338
353	14.52316	2.8149164	0.8728	0.8680	6.212869	22.19714
354	14.52278	2.8149164	0.8789	0.8741	6.212910	22.19735
355	14.52043	2.8135413	0.8942	0.8893	6.213618	22.18676
356	14.51644	2.8107860	0.8972	0.8923	6.214962	22.16512
357	14.51340	2.8074158	0.8942	0.8893	6.216407	22.13761
358	14.51720	2.8065512	0.8882	0.8833	6.216283	22.12796
359	14.52018	2.8057163	0.8851	0.8802	6.216238	22.11902
360	14.49763	2.8051067	0.8791	0.8742	6.218876	22.12655
361	14.45882	2.8045743	0.8790	0.8742	6.223246	22.14400
362	14.41810	2.8037460	0.8761	0.8713	6.227928	22.15999
363	14.38848	2.8031307	0.8730	0.8682	6.231342	22.17153
364	14.36948	2.8028290	0.8761	0.8713	6.233502	22.17974
365	14.35793	2.8025747	0.8762	0.8714	6.234839	22.18412
366	14.35055	2.8023380	0.8700	0.8652	6.235719	22.18628
367	14.34450	2.8021309	0.8701	0.8653	6.236445	22.18793
368	14.33970	2.8019120	0.8762	0.8714	6.237038	22.18876
369	14.33630	2.8014387	0.8823	0.8774	6.237566	22.18658
370	14.33340	2.8002140	0.8945	0.8896	6.238291	22.17756
371	14.33088	2.7978006	0.8976	0.8927	6.239372	22.15797
372	14.32987	2.7956953	0.8945	0.8896	6.240186	22.14021
373	14.33416	2.7956657	0.8824	0.8776	6.239730	22.13751
374	14.35036	2.7958903	0.8793	0.8745	6.237894	22.13023
375	14.37042	2.7959729	0.8641	0.8594	6.235688	22.11953
376	14.37251	2.7960497	0.8581	0.8534	6.235436	22.11901
377	14.35932	2.7963041	0.8581	0.8534	6.236783	22.12874
378	14.34336	2.7966945	0.8673	0.8625	6.238385	22.14123
379	14.33365	2.7969962	0.8795	0.8746	6.239339	22.14939
380	14.32987	2.7969963	0.8856	0.8807	6.239750	22.15154
381	14.32874	2.7960856	0.8947	0.8898	6.240178	22.14425
382	14.33012	2.7934252	0.8947	0.8898	6.240918	22.12029
383	14.33762	2.7901039	0.9009	0.8959	6.241213	22.08709
384	14.34620	2.7896607	0.8948	0.8899	6.240429	22.07836
385	14.35932	2.7897138	0.8918	0.8869	6.238985	22.07136
386	14.37547	2.7895778	0.8827	0.8778	6.237275	22.06101
387	14.38576	2.7891346	0.8674	0.8627	6.236305	22.05132
388	14.38608	2.7882485	0.8675	0.8628	6.236566	22.04343
389	14.38185	2.7874511	0.8675	0.8628	6.237292	22.03890
390	14.37958	2.7871440	0.8736	0.8688	6.237641	22.03751
391	14.38381	2.7870082	0.8737	0.8689	6.237227	22.03393
392	14.39107	2.7871735	0.8737	0.8689	6.236383	22.03126
393	14.39644	2.7874746	0.8829	0.8780	6.235700	22.03083
394	14.39883	2.7876164	0.8798	0.8750	6.235392	22.03070
395	14.39972	2.7871202	0.8859	0.8811	6.235461	22.02589
396	14.40105	2.7860395	0.8859	0.8811	6.235677	22.01574
397	14.40180	2.7839139	0.9012	0.8962	6.236304	21.99683
398	14.40010	2.7827865	0.9043	0.8993	6.236865	21.98800
399	14.40136	2.7828750	0.9043	0.8993	6.236698	21.98805
400	14.40490	2.7824559	0.8952	0.8902	6.236454	21.98241
401	14.40875	2.7818479	0.8861	0.8812	6.236237	21.97496
402	14.42404	2.7813816	0.8739	0.8691	6.234731	21.96227
403	14.43745	2.7806910	0.8679	0.8631	6.233505	21.94871
404	14.44010	2.7804962	0.8557	0.8510	6.233281	21.94552
405	14.43656	2.7814877	0.8558	0.8511	6.233336	21.95613
406	14.43055	2.7835182	0.8649	0.8602	6.233313	21.97715
407	14.42518	2.7847403	0.8771	0.8723	6.233489	21.99080
408	14.42088	2.7845750	0.8893	0.8844	6.234011	21.99179
409	14.41937	2.7814642	0.9015	0.8966	6.235212	21.96562
410	14.42379	2.7796408	0.9107	0.9057	6.235339	21.94728
411	14.43365	2.7762017	0.9046	0.8997	6.235412	21.91187
412	14.43732	2.7728821	0.8955	0.8906	6.236118	21.88099
413	14.44326	2.7715617	0.8864	0.8815	6.235911	21.86619
414	14.45730	2.7707895	0.8864	0.8815	6.234641	21.85161
415	14.46262	2.7706009	0.8773	0.8725	6.234126	21.84699
416	14.45933	2.7706540	0.8713	0.8665	6.234466	21.84930
417	14.45389	2.7706010	0.8713	0.8665	6.235075	21.85189
418	14.44725	2.7700942	0.8774	0.8726	6.235965	21.85123
419	14.43966	2.7689276	0.8744	0.8696	6.237179	21.84537
420	14.43176	2.7675020	0.8775	0.8726	6.238513	21.83743
421	14.42638	2.7664301	0.8805	0.8757	6.239455	21.83115
422	14.42664	2.7660767	0.8805	0.8757	6.239545	21.82794
423	14.42992	2.7662298	0.8837	0.8788	6.239137	21.82742
424	14.43410	2.7663475	0.8867	0.8818	6.238643	21.82610
425	14.43757	2.7658587	0.8867	0.8818	6.238427	21.81991
426	14.44029	2.7643511	0.8959	0.8910	6.238633	21.80530
427	14.44326	2.7629263	0.8929	0.8880	6.238784	21.79128
428	14.44826	2.7625200	0.8959	0.8910	6.238375	21.78496
429	14.45566	2.7627613	0.8899	0.8850	6.237489	21.78291
430	14.46344	2.7628437	0.8899	0.8851	6.236615	21.77927
431	14.47078	2.7620783	0.8778	0.8730	6.236070	21.76853
432	14.47857	2.7611777	0.8838	0.8790	6.235522	21.75637
433	14.48895	2.7607244	0.8839	0.8790	6.234543	21.74664
434	14.50105	2.7606595	0.8839	0.8791	6.233249	21.73933
435	14.50897	2.7606300	0.8870	0.8822	6.232397	21.73465
436	14.51150	2.7598355	0.8871	0.8822	6.232385	21.72636
437	14.50954	2.7574056	0.8871	0.8822	6.233405	21.70642
438	14.50700	2.7550587	0.8841	0.8792	6.234459	21.68752
439	14.50916	2.7541590	0.8810	0.8762	6.234522	21.67853
440	14.51885	2.7538355	0.8719	0.8671	6.233575	21.67034
441	14.52779	2.7539118	0.8750	0.8702	6.232577	21.66603
442	14.52963	2.7541588	0.8751	0.8703	6.232295	21.66714
443	14.52772	2.7540177	0.8720	0.8673	6.232549	21.66698
444	14.52430	2.7532357	0.8781	0.8733	6.233180	21.66212
445	14.52120	2.7521187	0.8782	0.8734	6.233888	21.65418
446	14.52024	2.7508902	0.8843	0.8794	6.234399	21.64408
447	14.52215	2.7501261	0.8935	0.8886	6.234445	21.63641
448	14.52436	2.7497734	0.8966	0.8916	6.234321	21.63213
449	14.52620	2.7490389	0.9026	0.8977	6.234364	21.62475
450	14.52703	2.7473232	0.9057	0.9008	6.234843	21.60946
451	14.53089	2.7497205	0.9027	0.8977	6.233628	21.62804
452	14.54275	2.7533120	0.8936	0.8887	6.231148	21.65252
453	14.56432	2.7535587	0.8784	0.8736	6.228721	21.64268
454	14.58565	2.7517889	0.8632	0.8585	6.226989	21.61556
455	14.59924	2.7500431	0.8572	0.8525	6.226088	21.59296
456	14.59790	2.7502723	0.8633	0.8586	6.226158	21.59567
457	14.59136	2.7527706	0.8694	0.8646	6.226044	21.62087
458	14.58545	2.7548110	0.8816	0.8768	6.226011	21.64176
459	14.57955	2.7526884	0.8908	0.8859	6.227354	21.62670
460	14.57282	2.7476753	0.8969	0.8920	6.229742	21.58712
461	14.56768	2.7462654	0.8939	0.8890	6.230768	21.57779
462	14.56134	2.7433584	0.8909	0.8860	6.232419	21.55619
463	14.55556	2.7414327	0.8971	0.8921	6.233685	21.54274
464	14.55645	2.7425599	0.8940	0.8891	6.233216	21.55199
465	14.56559	2.7432761	0.8880	0.8831	6.231984	21.55313
466	14.57930	2.7419198	0.8758	0.8710	6.230940	21.53384
467	14.58869	2.7409687	0.8728	0.8680	6.230231	21.52044
468	14.58914	2.7405461	0.8758	0.8710	6.230323	21.51655
469	14.58647	2.7401059	0.8759	0.8711	6.230758	21.51422
470	14.58298	2.7393723	0.8759	0.8711	6.231381	21.50982
471	14.57980	2.7383688	0.8729	0.8681	6.232058	21.50291
472	14.57707	2.7380814	0.8882	0.8833	6.232450	21.50193
473	14.57498	2.7378291	0.8821	0.8773	6.232762	21.50090
474	14.57377	2.7374770	0.8791	0.8743	6.233010	21.49853
475	14.57314	2.7373656	0.8882	0.8834	6.233116	21.49792
476	14.57244	2.7365853	0.8944	0.8895	6.233450	21.49156
477	14.57130	2.7355529	0.8914	0.8865	6.233915	21.48328
478	14.56908	2.7364739	0.9005	0.8956	6.233853	21.49245
479	14.56502	2.7385861	0.9067	0.9017	6.233597	21.51293
480	14.55613	2.7365620	0.8976	0.8926	6.235235	21.50035
481	14.53831	2.7355825	0.8916	0.8867	6.237502	21.50173
482	14.51296	2.7357997	0.8733	0.8685	6.240196	21.51761
483	14.48275	2.7355830	0.8703	0.8655	6.243566	21.53243
484	14.45319	2.7354483	0.8612	0.8564	6.246840	21.54762
485	14.42973	2.7353664	0.8673	0.8625	6.249433	21.55991
486	14.41412	2.7354721	0.8674	0.8626	6.251106	21.56948
487	14.40540	2.7354136	0.8856	0.8807	6.252080	21.57380
488	14.40041	2.7345808	0.8918	0.8869	6.252904	21.56935
489	14.39498	2.7353902	0.8949	0.8899	6.253229	21.57938
490	14.38867	2.7387754	0.9070	0.9021	6.252791	21.61225
491	14.38387	2.7404364	0.8919	0.8870	6.252761	21.62934
492	14.38273	2.7394797	0.8980	0.8930	6.253205	21.62166
493	14.38134	2.7387520	0.8859	0.8810	6.253600	21.61613
494	14.36740	2.7386700	0.8768	0.8720	6.255155	21.62318
495	14.34513	2.7392570	0.8798	0.8750	6.257398	21.64067
496	14.32313	2.7399145	0.8768	0.8720	6.259589	21.65865
497	14.30813	2.7401612	0.8799	0.8751	6.261151	21.66916
498	14.30038	2.7403256	0.8830	0.8781	6.261946	21.67491
499	14.29616	2.7402611	0.8830	0.8781	6.262430	21.67671
500	14.29219	2.7391871	0.8952	0.8903	6.263226	21.66958
501	14.28753	2.7386942	0.8952	0.8903	6.263902	21.66789
502	14.28332	2.7391989	0.8923	0.8874	6.264196	21.67464
503	14.27973	2.7393750	0.8953	0.8904	6.264531	21.67817
504	14.27878	2.7375853	0.8893	0.8844	6.265235	21.66313
505	14.27790	2.7352857	0.8832	0.8784	6.266103	21.64362
506	14.27111	2.7339544	0.8863	0.8814	6.267297	21.63583
507	14.25865	2.7326879	0.8803	0.8754	6.269091	21.63176
508	14.24626	2.7319610	0.8864	0.8815	6.270698	21.63234
509	14.24091	2.7323128	0.8742	0.8694	6.271168	21.63839
510	14.24223	2.7325239	0.8713	0.8665	6.270952	21.63949
511	14.24248	2.7326587	0.8774	0.8725	6.270879	21.64052
512	14.23871	2.7328522	0.8835	0.8786	6.271229	21.64431
513	14.23349	2.7330106	0.8866	0.8817	6.271749	21.64860
514	14.22928	2.7329051	0.8896	0.8847	6.272248	21.65003
515	14.22652	2.7319025	0.9049	0.8999	6.272890	21.64284
516	14.22419	2.7309059	0.9111	0.9060	6.273481	21.63546
517	14.22111	2.7308649	0.9050	0.9000	6.273834	21.63682
518	14.21401	2.7309881	0.8989	0.8940	6.274574	21.64186
519	14.20327	2.7287433	0.8838	0.8789	6.276513	21.62830
520	14.18920	2.7272609	0.8746	0.8698	6.278563	21.62323
521	14.17150	2.7271263	0.8625	0.8578	6.280560	21.63194
522	14.15180	2.7272085	0.8656	0.8608	6.282706	21.64366
523	14.13581	2.7266931	0.8687	0.8639	6.284645	21.64810
524	14.12860	2.7260663	0.8748	0.8700	6.285653	21.64666
525	14.12873	2.7256738	0.8901	0.8852	6.285772	21.64316
526	14.13161	2.7258847	0.9053	0.9004	6.285383	21.64339
527	14.13349	2.7278064	0.9053	0.9004	6.284525	21.65911
528	14.13437	2.7275603	0.9115	0.9065	6.284512	21.65647
529	14.13945	2.7284216	0.9085	0.9035	6.283660	21.66114
530	14.13894	2.7289900	0.8963	0.8913	6.283523	21.66639
531	14.14026	2.7279762	0.8842	0.8793	6.283720	21.65681
532	14.12779	2.7273962	0.8782	0.8733	6.285294	21.65873
533	14.08982	2.7269103	0.8751	0.8703	6.289652	21.67574
534	14.04977	2.7263775	0.8721	0.8673	6.294263	21.69353
535	14.02083	2.7256455	0.8691	0.8644	6.297716	21.70337
536	14.00090	2.7252415	0.8692	0.8644	6.300062	21.71103
537	13.98879	2.7253470	0.8692	0.8644	6.301369	21.71876
538	13.98398	2.7253822	0.8814	0.8766	6.301890	21.72177
539	13.98523	2.7252709	0.8876	0.8827	6.301790	21.72009
540	13.98985	2.7261847	0.9058	0.9009	6.300967	21.72550
541	13.99153	2.7262081	0.9120	0.9070	6.300772	21.72475
542	13.98791	2.7273448	0.9150	0.9100	6.300786	21.73675
543	13.98710	2.7288800	0.9150	0.9100	6.300353	21.75065
544	14.00096	2.7262666	0.9060	0.9010	6.299707	21.71996
545	14.00640	2.7238943	0.8908	0.8859	6.299912	21.69614
546	13.98685	2.7225769	0.8695	0.8648	6.302527	21.69558
547	13.96744	2.7223077	0.8604	0.8557	6.304773	21.70413
548	13.95621	2.7226123	0.8574	0.8527	6.305915	21.71312
549	13.95303	2.7229519	0.8605	0.8558	6.306153	21.71788
550	13.95771	2.7231393	0.8789	0.8741	6.305570	21.71689
551	13.96432	2.7235843	0.8910	0.8861	6.304684	21.71707
552	13.96856	2.7240293	0.9002	0.8953	6.304062	21.71858
553	13.97268	2.7221964	0.9094	0.9044	6.304229	21.70020
554	13.98036	2.7234963	0.9125	0.9075	6.302935	21.70727
555	13.98398	2.7252123	0.9064	0.9014	6.301948	21.72028
556	13.98741	2.7249429	0.8973	0.8924	6.301659	21.71599
557	13.97892	2.7245388	0.8913	0.8864	6.302739	21.71722
558	13.94162	2.7236665	0.8761	0.8712	6.307176	21.73057
559	13.90236	2.7234618	0.8701	0.8653	6.311608	21.75089
560	13.87447	2.7235734	0.8731	0.8683	6.314672	21.76761
561	13.85568	2.7237258	0.8701	0.8653	6.316711	21.77956
562	13.84411	2.7237845	0.8824	0.8775	6.317978	21.78661
563	13.83827	2.7237318	0.8793	0.8745	6.318647	21.78945
564	13.83522	2.7232399	0.8855	0.8806	6.319155	21.78685
565	13.83342	2.7226544	0.9037	0.8988	6.319557	21.78271
566	13.83559	2.7222796	0.9068	0.9019	6.319444	21.77818
567	13.84256	2.7224142	0.9069	0.9019	6.318622	21.77543
568	13.84728	2.7223849	0.9008	0.8959	6.318106	21.77251
569	13.85176	2.7221741	0.8979	0.8929	6.317679	21.76812
570	13.85064	2.7215769	0.8949	0.8899	6.318009	21.76351
571	13.84653	2.7205934	0.8796	0.8748	6.318803	21.75718
572	13.84299	2.7201017	0.8706	0.8658	6.319366	21.75486
573	13.83603	2.7200198	0.8707	0.8659	6.320170	21.75808
574	13.82521	2.7200784	0.8706	0.8658	6.321356	21.76470
575	13.82223	2.7197214	0.8737	0.8689	6.321811	21.76324
576	13.82863	2.7195867	0.8829	0.8780	6.321144	21.75844
577	13.83311	2.7198793	0.8921	0.8872	6.320544	21.75848
578	13.83491	2.7213077	0.8952	0.8903	6.319853	21.77003
579	13.83677	2.7223323	0.8983	0.8933	6.319294	21.77798
580	13.84461	2.7200197	0.8922	0.8873	6.319215	21.75323
581	13.85487	2.7192821	0.8892	0.8843	6.318324	21.74095
582	13.85698	2.7200196	0.8923	0.8874	6.317836	21.74624
583	13.85462	2.7196684	0.8863	0.8814	6.318220	21.74449
584	13.85493	2.7183984	0.8863	0.8814	6.318621	21.73315
585	13.85418	2.7178132	0.8833	0.8785	6.318904	21.72843
586	13.84964	2.7176786	0.8803	0.8754	6.319456	21.72981
587	13.84069	2.7176027	0.8803	0.8755	6.320480	21.73419
588	13.83168	2.7175442	0.8864	0.8816	6.321505	21.73876
589	13.82422	2.7174682	0.8804	0.8756	6.322363	21.74230
590	13.81894	2.7173746	0.8865	0.8816	6.322984	21.74446
591	13.81558	2.7169826	0.8926	0.8877	6.323493	21.74290
592	13.81309	2.7154791	0.8988	0.8939	6.324287	21.73107
593	13.81092	2.7132799	0.8958	0.8909	6.325286	21.71296
594	13.80837	2.7115081	0.8988	0.8939	6.326179	21.69881
595	13.80651	2.7111047	0.8897	0.8848	6.326526	21.69631
596	13.80931	2.7115490	0.8867	0.8819	6.326061	21.69864
597	13.81670	2.7113209	0.8838	0.8789	6.325314	21.69248
598	13.82080	2.7109175	0.8747	0.8699	6.324994	21.68662
599	13.81446	2.7106720	0.8777	0.8729	6.325786	21.68803
600	13.80359	2.7103564	0.8809	0.8760	6.327109	21.69137
601	13.79167	2.7098713	0.8809	0.8761	6.328608	21.69382
602	13.78055	2.7091934	0.8840	0.8791	6.330083	21.69412
603	13.77224	2.7082642	0.8841	0.8792	6.331333	21.69062
604	13.76914	2.7073818	0.8871	0.8822	6.331984	21.68460
605	13.76920	2.7070428	0.8963	0.8913	6.332094	21.68158
606	13.76889	2.7070078	0.8994	0.8944	6.332140	21.68144
607	13.76715	2.7073818	0.8964	0.8914	6.332206	21.68572
608	13.76504	2.7074694	0.8903	0.8854	6.332412	21.68768
609	13.76392	2.7075162	0.8842	0.8794	6.332520	21.68872
610	13.76256	2.7075454	0.8813	0.8764	6.332663	21.68975
611	13.75890	2.7073000	0.8753	0.8704	6.333157	21.68965
612	13.75294	2.7072767	0.8753	0.8704	6.333831	21.69280
613	13.74643	2.7074638	0.8814	0.8765	6.334496	21.69812
614	13.74116	2.7076683	0.8814	0.8766	6.335015	21.70289
615	13.73750	2.7078145	0.8815	0.8766	6.335374	21.70624
616	13.73564	2.7077327	0.8877	0.8828	6.335611	21.70657
617	13.73589	2.7076100	0.8999	0.8949	6.335625	21.70535
618	13.73806	2.7078378	0.9029	0.8980	6.335304	21.70613
619	13.73769	2.7077034	0.8999	0.8949	6.335392	21.70516
620	13.73887	2.7078378	0.8999	0.8950	6.335214	21.70568
621	13.73819	2.7073587	0.8970	0.8920	6.335455	21.70184
622	13.72796	2.7068738	0.8909	0.8860	6.336768	21.70334
623	13.70788	2.7062195	0.8909	0.8860	6.339243	21.70890
624	13.68677	2.7052733	0.8788	0.8740	6.341937	21.71248
625	13.66906	2.7043096	0.8788	0.8740	6.344256	21.71398
626	13.65836	2.7038716	0.8789	0.8740	6.345609	21.71616
627	13.65551	2.7037723	0.8698	0.8650	6.345963	21.71689
628	13.65582	2.7039592	0.8760	0.8712	6.345863	21.71837
629	13.65539	2.7041228	0.8820	0.8772	6.345855	21.72005
630	13.65539	2.7043097	0.8882	0.8833	6.345791	21.72170
631	13.65663	2.7044382	0.9035	0.8985	6.345608	21.72213
632	13.65991	2.7049230	0.9066	0.9016	6.345072	21.72456
633	13.66201	2.7054604	0.9066	0.9016	6.344649	21.72811
634	13.66387	2.7051157	0.8975	0.8926	6.344560	21.72402
635	13.66486	2.7037489	0.8914	0.8865	6.344923	21.71140
636	13.65329	2.7024933	0.8793	0.8745	6.346656	21.70686
637	13.63245	2.7016935	0.8794	0.8746	6.349274	21.71157
638	13.61373	2.7014777	0.8764	0.8716	6.351454	21.72025
639	13.60069	2.7014486	0.8704	0.8656	6.352929	21.72737
640	13.59242	2.7015829	0.8673	0.8625	6.353814	21.73324
641	13.58865	2.7017990	0.8856	0.8808	6.354162	21.73728
642	13.58840	2.7019333	0.8887	0.8838	6.354143	21.73861
643	13.58945	2.7022311	0.8948	0.8899	6.353922	21.74064
644	13.59001	2.7023888	0.9010	0.8960	6.353805	21.74172
645	13.58958	2.7024297	0.9102	0.9052	6.353839	21.74232
646	13.59334	2.7019566	0.9041	0.8991	6.353580	21.73601
647	13.60038	2.7019858	0.8890	0.8841	6.352778	21.73229
648	13.60045	2.7019799	0.8829	0.8780	6.352773	21.73220
649	13.59229	2.7019566	0.8799	0.8751	6.353698	21.73661
650	13.58229	2.7019859	0.8799	0.8751	6.354813	21.74253
651	13.57217	2.7021495	0.8860	0.8812	6.355895	21.74971
652	13.56366	2.7022022	0.8830	0.8782	6.356835	21.75501
653	13.55644	2.7022781	0.8832	0.8783	6.357621	21.75977
654	13.55015	2.7023716	0.8862	0.8813	6.358297	21.76417
655	13.54503	2.7024125	0.8923	0.8874	6.358859	21.76743
656	13.54305	2.7028155	0.8923	0.8874	6.358941	21.77212
657	13.54571	2.6941016	0.8924	0.8875	6.361679	21.69349
658	13.44822	2.6790509	0.8955	0.8906	6.377958	21.61524
659	13.26750	2.6799141	0.8895	0.8846	6.398187	21.72531
660	13.13496	2.6796591	0.8956	0.8907	6.413400	21.79863
661	13.06364	2.6785712	0.8835	0.8786	6.421949	21.82974
662	13.03652	2.6757488	0.8865	0.8816	6.426068	21.82002
663	13.03700	2.6762725	0.8774	0.8725	6.425824	21.82443
664	13.04047	2.6756848	0.8743	0.8695	6.425637	21.81718
665	13.04333	2.6756440	0.8774	0.8726	6.425324	21.81517
666	13.04758	2.6765285	0.8836	0.8787	6.424520	21.82066
667	13.04138	2.6791069	0.8897	0.8848	6.424309	21.84732
668	13.01944	2.6816223	0.9172	0.9122	6.425925	21.88247
669	12.98354	2.6867314	0.9750	0.9697	6.428210	21.94898
670	12.92045	2.6920250	1.0724	1.0665	6.433546	22.03304
671	12.82923	2.6963365	1.1851	1.1786	6.442469	22.12491
672	12.71455	2.6993781	1.3129	1.3057	6.454569	22.21946
673	12.59200	2.7001790	1.4408	1.4329	6.468426	22.29881
674	12.49076	2.7008863	1.5899	1.5812	6.479890	22.36509
675	12.40903	2.7012724	1.7513	1.7416	6.489235	22.41711
676	12.33984	2.7017285	1.9400	1.9293	6.497116	22.46246
677	12.28691	2.7048770	2.1469	2.1351	6.502113	22.52286
678	12.24042	2.7033588	2.3692	2.3561	6.508101	22.53675
679	12.18721	2.7009827	2.5975	2.5832	6.515204	22.54683
680	12.13160	2.6995879	2.8318	2.8162	6.522236	22.56739
681	12.07328	2.6957835	3.0631	3.0462	6.530504	22.56745
682	11.99277	2.6922261	3.2944	3.2762	6.541308	22.58315
683	11.90454	2.6889270	3.5227	3.5033	6.552959	22.60594
684	11.82046	2.6898547	3.7601	3.7394	6.562544	22.66542
685	11.75565	2.6949931	3.9822	3.9603	6.568257	22.75246
686	11.71187	2.7023769	4.2106	4.1874	6.570616	22.84776
687	11.68854	2.7135393	4.4357	4.4113	6.569101	22.96586
688	11.69065	2.7163705	4.6609	4.6353	6.567769	22.99083
689	11.70308	2.7178859	4.8893	4.8623	6.565723	22.99719
690	11.71727	2.7200396	5.1115	5.0833	6.563225	23.00840
691	11.73311	2.7211225	5.3427	5.3133	6.560945	23.00861
692	11.74637	2.7221939	5.5711	5.5404	6.558974	23.01032
693	11.75935	2.7607678	5.7931	5.7612	6.542713	23.36100
694	11.84388	2.8199410	6.0306	5.9973	6.510340	23.85841
695	12.00117	2.8328992	6.2527	6.2183	6.487309	23.87834
696	12.08767	2.8413759	6.4749	6.4392	6.474203	23.90166
697	12.06736	2.8539848	6.7093	6.6723	6.471798	24.03143
698	11.98787	2.8559162	6.9467	6.9084	6.480168	24.10040
699	11.92636	2.8705134	7.1811	7.1415	6.481699	24.27594
700	11.88563	2.8971173	7.4124	7.3716	6.476285	24.55060
701	11.82464	2.9297424	7.6316	7.5895	6.470851	24.89604
702	11.72589	2.9508106	7.8690	7.8256	6.474036	25.15997
703	11.55931	3.0018538	8.0972	8.0525	6.473325	25.75544
704	11.30108	3.0203589	8.3255	8.2796	6.495352	26.11195
705	11.11630	3.0327542	8.5538	8.5066	6.511448	26.36178
706	11.03991	3.0446425	8.7820	8.7336	6.515433	26.53075
707	11.01417	3.0525877	9.0134	8.9636	6.515215	26.62572
708	10.99955	3.0584432	9.2447	9.1937	6.514558	26.69263
709	10.95614	3.0713979	9.4699	9.4177	6.514344	26.84909
710	10.86368	3.0895338	9.7042	9.6507	6.517595	27.09226
711	10.75371	3.0963322	9.9294	9.8746	6.527320	27.23959
712	10.64082	3.0968494	10.1669	10.1108	6.539912	27.32868
713	10.52054	3.0994681	10.3891	10.3317	6.552524	27.44434
714	10.39985	3.1046022	10.6173	10.5587	6.564184	27.58564
715	10.27259	3.1091120	10.8548	10.7949	6.576864	27.72662
716	10.14497	3.1133719	11.0799	11.0188	6.589708	27.86628
717	10.04610	3.1161188	11.2992	11.2368	6.599905	27.96956
718	9.98477	3.1187061	11.5273	11.4637	6.605871	28.04261
719	9.92991	3.1198586	11.7526	11.6877	6.611696	28.09656
720	9.86944	3.1246720	11.9748	11.9086	6.616637	28.19154
721	9.79902	3.1283721	12.2001	12.1327	6.623189	28.28348
722	9.70737	3.1327033	12.4161	12.3476	6.631923	28.39881
723	9.57762	3.1410571	12.6475	12.5776	6.643351	28.58536
724	9.40347	3.1445863	12.8819	12.8107	6.661985	28.76001
725	9.23620	3.1496812	13.1192	13.0468	6.679196	28.94643
726	9.03393	3.1596250	13.3475	13.2737	6.698399	29.21257
727	8.75339	3.1612190	13.5818	13.5068	6.730485	29.46046
728	8.50249	3.1602930	13.8131	13.7368	6.760404	29.66043
729	8.28807	3.1556040	14.0384	13.9608	6.787895	29.79238
730	8.07906	3.1546349	14.2697	14.1909	6.813199	29.95993
731	7.89110	3.1489473	14.4889	14.4088	6.838308	30.06108
732	7.73685	3.1490107	14.7080	14.6267	6.856805	30.19479
733	7.63614	3.1512563	14.9393	14.8567	6.867878	30.30601
734	7.56986	3.1504284	15.1645	15.0807	6.876268	30.35489
735	7.51989	3.1497303	15.3929	15.3077	6.882639	30.39102
736	7.47735	3.1427842	15.6150	15.5287	6.891097	30.35396
737	7.39726	3.1353506	15.8342	15.7466	6.904370	30.34443
738	7.28138	3.1319147	16.0716	15.9827	6.920136	30.40913
739	7.17219	3.1291277	16.3151	16.2248	6.934826	30.47520
740	7.08140	3.1274637	16.5525	16.4610	6.946761	30.53740
741	7.01175	3.1247025	16.7777	16.6849	6.956664	30.56919
742	6.94643	3.1233164	17.0120	16.9179	6.965385	30.61212
743	6.89877	3.1227130	17.2556	17.1601	6.971558	30.64791
744	6.86794	3.1216412	17.4960	17.3992	6.975893	30.66366
745	6.84030	3.1206865	17.7547	17.6564	6.979782	30.67784
746	6.81065	3.1197751	18.0043	17.9046	6.983899	30.69431
747	6.78511	3.1193627	18.2387	18.1377	6.987266	30.71256
748	6.76336	3.1183528	18.4913	18.3889	6.990463	30.72092
749	6.74275	3.1179342	18.7226	18.6190	6.993227	30.73472
750	6.72339	3.1170784	18.9661	18.8610	6.996055	30.74263
751	6.70115	3.1156563	19.2005	19.0941	6.999523	30.74695
752	6.66924	3.1144007	19.4409	19.3332	7.004113	30.76178
753	6.63302	3.1136193	19.6783	19.5693	7.009007	30.78568
754	6.60388	3.1133180	19.9249	19.8144	7.012785	30.80850
755	6.58294	3.1125920	20.1714	20.0596	7.015758	30.81930
756	6.56546	3.1124014	20.3997	20.2866	7.018034	30.83287
757	6.55287	3.1123154	20.6401	20.5257	7.019650	30.84317
758	6.54377	3.1118417	20.8806	20.7648	7.021026	30.84608
759	6.53349	3.1111034	21.1149	20.9978	7.022681	30.84715
760	6.51824	3.1106605	21.3614	21.2430	7.024811	30.85595
761	6.49457	3.1103347	21.5958	21.4760	7.027931	30.87366
762	6.46138	3.1101936	21.8454	21.7243	7.032150	30.90202
763	6.42831	3.1102494	22.0858	21.9633	7.036257	30.93249
764	6.39850	3.1105451	22.3233	22.1995	7.039838	30.96269
765	6.37582	3.1111608	22.5637	22.4385	7.042368	30.98996
766	6.36098	3.1115795	22.7890	22.6625	7.044017	31.00797
767	6.35187	3.1114935	23.0264	22.8986	7.045205	31.01520
768	6.34338	3.1106629	23.2608	23.1317	7.046693	31.01366
769	6.32672	3.1100109	23.5012	23.3708	7.049116	31.02154
770	6.30908	3.1097465	23.7447	23.6129	7.051464	31.03458
771	6.29560	3.1095375	23.9791	23.8460	7.053266	31.04446
772	6.28507	3.1093347	24.2164	24.0820	7.054693	31.05171
773	6.27711	3.1091010	24.4570	24.3212	7.055815	31.05628
774	6.26904	3.1086029	24.6974	24.5602	7.057086	31.05803
775	6.25868	3.1085107	24.9317	24.7932	7.058438	31.06636
776	6.25016	3.1085663	25.1843	25.0445	7.059484	31.07464
777	6.24485	3.1083572	25.4278	25.2866	7.060262	31.07707
778	6.24062	3.1079206	25.6684	25.5258	7.061021	31.07599
779	6.23296	3.1067397	25.8966	25.7527	7.062589	31.06982
780	6.21976	3.1063278	26.1401	25.9949	7.064463	31.07722
781	6.20844	3.1061497	26.3714	26.2249	7.065982	31.08549
782	6.20135	3.1058546	26.6028	26.4549	7.067028	31.08860
783	6.19656	3.1058301	26.8372	26.6880	7.067648	31.09260
784	6.19361	3.1057626	27.0684	26.9180	7.068059	31.09445
785	6.18963	3.1040839	27.3089	27.1571	7.069422	31.07938
786	6.17012	3.1039059	27.5523	27.3991	7.071973	31.09515
787	6.14370	3.1066797	27.7838	27.6293	7.073883	31.15000
788	6.12609	3.1086607	28.0364	27.8805	7.075088	31.18803
789	6.11826	3.1101990	28.3072	28.1498	7.075291	31.21218
790	6.11058	3.1102853	28.5690	28.4101	7.076219	31.22008
791	6.07530	3.1074188	28.7942	28.6340	7.082139	31.22060
792	6.00726	3.1027583	29.0407	28.8792	7.093131	31.23132
793	5.92070	3.1012286	29.2751	29.1123	7.104877	31.29410
794	5.84634	3.0990231	29.5157	29.3514	7.115455	31.33823
795	5.78104	3.0971007	29.7469	29.5814	7.124758	31.37724
796	5.72174	3.0971075	29.9874	29.8205	7.132304	31.43242
797	5.68386	3.0965490	30.2248	30.0566	7.137427	31.46138
798	5.65859	3.0958306	30.4713	30.3016	7.141031	31.47679
799	5.63903	3.0957264	30.7148	30.5438	7.143588	31.49380
800	5.62620	3.0950510	30.9462	30.7739	7.145585	31.49808
801	5.61489	3.0944309	31.1927	31.0189	7.147362	31.50157
802	5.60439	3.0939950	31.4393	31.2642	7.148939	31.50638
803	5.59444	3.0934671	31.6797	31.5032	7.150495	31.50963
804	5.58519	3.0931295	31.9384	31.7605	7.151860	31.51436
805	5.57781	3.0931112	32.1789	31.9997	7.152819	31.52096
806	5.57329	3.0927921	32.4377	32.2569	7.153571	31.52147
807	5.56958	3.0924790	32.6902	32.5081	7.154218	31.52130
808	5.56526	3.0913802	32.9277	32.7442	7.155357	31.51285
809	5.55768	3.0902508	33.1833	32.9984	7.156930	31.50709
810	5.54789	3.0895635	33.4360	33.2497	7.158553	31.50839
811	5.53805	3.0891832	33.6916	33.5038	7.160019	31.51320
812	5.53023	3.0890115	33.9413	33.7520	7.161118	31.51848
813	5.52506	3.0890055	34.2031	34.0123	7.161789	31.52314
814	5.52190	3.0888030	34.4587	34.2665	7.162307	31.52369
815	5.51919	3.0885822	34.6992	34.5057	7.162777	31.52362
816	5.51643	3.0886253	34.9518	34.7569	7.163113	31.52658
817	5.51513	3.0884903	35.2014	35.0050	7.163358	31.52616
818	5.51453	3.0886868	35.4418	35.2441	7.163336	31.52882
819	5.51428	3.0885948	35.6853	35.4861	7.163422	31.52790
820	5.51408	3.0883924	35.9350	35.7344	7.163561	31.52568
821	5.51337	3.0881838	36.1846	35.9827	7.163768	31.52387
822	5.51207	3.0881287	36.4433	36.2399	7.163970	31.52434
823	5.51032	3.0876501	36.6899	36.4851	7.164454	31.52047
824	5.50615	3.0878650	36.9394	36.7332	7.164879	31.52668
825	5.50440	3.0878651	37.1951	36.9874	7.165110	31.52821
826	5.50430	3.0876811	37.4508	37.2417	7.165226	31.52610
827	5.50239	3.0873069	37.6973	37.4867	7.165675	31.52354
828	5.49798	3.0869388	37.9561	37.7441	7.166442	31.52340
829	5.49307	3.0870739	38.2118	37.9984	7.167006	31.52941
830	5.49011	3.0870127	38.4491	38.2344	7.167423	31.53138
831	5.48861	3.0871294	38.7170	38.5007	7.167560	31.53398
832	5.48816	3.0870129	39.0184	38.8003	7.167687	31.53295
833	5.48756	3.0873075	39.2558	39.0364	7.167613	31.53672
834	5.48796	3.0873137	39.4993	39.2786	7.167564	31.53630
835	5.48901	3.0871051	39.7551	39.5329	7.167545	31.53283
836	5.48901	3.0868782	40.0076	39.7840	7.167672	31.53015
837	5.48756	3.0867801	40.2481	40.0231	7.167916	31.53029
838	5.48555	3.0866636	40.5099	40.2834	7.168241	31.53073
839	5.48355	3.0866944	40.7595	40.5316	7.168487	31.53284
840	5.48280	3.0866331	41.0092	40.7798	7.168622	31.53273
841	5.48290	3.0867866	41.2618	41.0310	7.168533	31.53425
842	5.48310	3.0866946	41.5175	41.2853	7.168562	31.53290
843	5.48310	3.0866333	41.7702	41.5365	7.168600	31.53208
844	5.48270	3.0864187	42.0106	41.7756	7.168771	31.52992
845	5.48169	3.0865169	42.2602	42.0237	7.168853	31.53185
846	5.48094	3.0865477	42.5068	42.2689	7.168939	31.53278
847	5.48039	3.0866030	42.7563	42.5170	7.168986	31.53380
848	5.48019	3.0867503	43.0059	42.7652	7.168939	31.53554
849	5.48034	3.0867258	43.2526	43.0105	7.168938	31.53500
850	5.48034	3.0865480	43.5053	43.2617	7.169039	31.53287
851	5.47994	3.0867260	43.7457	43.5008	7.169001	31.53514
852	5.48004	3.0869101	43.9984	43.7520	7.168896	31.53701
853	5.48124	3.0868979	44.2540	44.0062	7.168754	31.53562
854	5.48214	3.0868121	44.5128	44.2635	7.168690	31.53367
855	5.48174	3.0867263	44.7624	44.5117	7.168792	31.53296
856	5.48114	3.0867509	45.0181	44.7659	7.168862	31.53368
857	5.48109	3.0867571	45.2646	45.0110	7.168871	31.53368
858	5.48149	3.0867510	45.5082	45.2532	7.168828	31.53312
859	5.48184	3.0867511	45.7639	45.5075	7.168789	31.53266
860	5.48235	3.0867880	46.0135	45.7556	7.168711	31.53249
861	5.48270	3.0867512	46.2571	45.9979	7.168691	31.53163
862	5.48265	3.0866961	46.5098	46.2490	7.168732	31.53093
863	5.48204	3.0866348	46.7594	46.4972	7.168848	31.53068
864	5.48129	3.0866656	46.9938	46.7303	7.168933	31.53162
865	5.48069	3.0864816	47.2465	46.9815	7.169114	31.52999
866	5.47894	3.0864019	47.4991	47.2328	7.169387	31.53061
867	5.47668	3.0864879	47.7549	47.4870	7.169637	31.53358
868	5.47543	3.0864819	48.0044	47.7352	7.169806	31.53456
869	5.47403	3.0864329	48.2510	47.9803	7.170018	31.53521
870	5.47197	3.0864636	48.5098	48.2376	7.170271	31.53736
871	5.47067	3.0864821	48.7594	48.4858	7.170434	31.53867
872	5.47067	3.0864883	49.0152	48.7401	7.170436	31.53862
873	5.47067	3.0864516	49.2677	48.9912	7.170462	31.53808
874	5.47082	3.0866664	49.5174	49.2395	7.170334	31.54025
875	5.47212	3.0867278	49.7700	49.4906	7.170140	31.53960
876	5.47418	3.0867279	50.0195	49.7387	7.169882	31.53755
877	5.47558	3.0867832	50.2692	49.9870	7.169678	31.53674
878	5.47643	3.0868998	50.5099	50.2262	7.169512	31.53714
879	5.47718	3.0869735	50.7625	50.4774	7.169382	31.53714
880	5.47764	3.0869306	51.0182	50.7317	7.169353	31.53611
881	5.47748	3.0869430	51.2678	50.9798	7.169371	31.53627
882	5.47713	3.0869615	51.5114	51.2221	7.169412	31.53669
883	5.47698	3.0870781	51.7641	51.4733	7.169375	31.53803
884	5.47769	3.0870107	52.0106	51.7184	7.169326	31.53649
885	5.47753	3.0870476	52.2542	51.9606	7.169332	31.53693
886	5.47743	3.0872808	52.5160	52.2209	7.169226	31.53954
887	5.47854	3.0873484	52.7719	52.4753	7.169055	31.53914
888	5.47974	3.0873730	53.0183	52.7203	7.168893	31.53817
889	5.48059	3.0873485	53.2679	52.9684	7.168802	31.53697
890	5.48094	3.0873977	53.5176	53.2167	7.168737	31.53708
891	5.48119	3.0872812	53.7794	53.4770	7.168773	31.53540
892	5.48069	3.0871340	54.0260	53.7222	7.168921	31.53409
893	5.47964	3.0871954	54.2847	53.9794	7.169029	31.53565
894	5.47914	3.0872569	54.5344	54.2276	7.169066	31.53669
895	5.47919	3.0874103	54.7871	54.4789	7.168984	31.53826
896	5.47969	3.0873736	55.0185	54.7090	7.168945	31.53726
897	5.48034	3.0874411	55.2834	54.9723	7.168831	31.53728
898	5.48059	3.0873737	55.5238	55.2114	7.168840	31.53617
899	5.48059	3.0873738	55.7765	55.4626	7.168846	31.53605
900	5.48044	3.0873493	56.0383	55.7229	7.168884	31.53579
901	5.47984	3.0872819	56.2789	55.9621	7.169003	31.53548
902	5.47869	3.0873740	56.5436	56.2253	7.169107	31.53747
903	5.47869	3.0874109	56.7965	56.4767	7.169094	31.53777
904	5.47914	3.0872269	57.0460	56.7248	7.169139	31.53514
905	5.47769	3.0869754	57.3078	56.9851	7.169465	31.53354
906	5.47413	3.0867301	57.5573	57.2332	7.170058	31.53399
907	5.46922	3.0865830	57.8132	57.4875	7.170772	31.53681
908	5.46476	3.0865156	58.0841	57.7569	7.171387	31.54011
909	5.46120	3.0862274	58.3337	58.0051	7.172002	31.54007
910	5.45755	3.0865833	58.5834	58.2533	7.172288	31.54741
911	5.45715	3.0863932	58.8268	58.4953	7.172446	31.54552
912	5.45620	3.0861418	59.1010	58.7679	7.172708	31.54344
913	5.45344	3.0860192	59.3597	59.0251	7.173133	31.54451
914	5.45034	3.0859947	59.6063	59.2703	7.173551	31.54704
915	5.44793	3.0859089	59.8559	59.5185	7.173911	31.54820
916	5.44608	3.0858967	60.1117	59.7728	7.174161	31.54968
917	5.44478	3.0858784	60.3552	60.0149	7.174343	31.55058
918	5.44383	3.0858478	60.6079	60.2661	7.174488	31.55101
919	5.44303	3.0858663	60.8545	60.5113	7.174586	31.55185
920	5.44238	3.0858480	61.1133	60.7686	7.174686	31.55213
921	5.44193	3.0856824	61.3569	61.0108	7.174837	31.55056
922	5.44102	3.0855598	61.6004	61.2529	7.175024	31.54991
923	5.43882	3.0852655	61.8501	61.5011	7.175469	31.54853
924	5.43577	3.0850938	62.0968	61.7464	7.175959	31.54934
925	5.43206	3.0850019	62.3372	61.9854	7.176489	31.55166
926	5.42931	3.0849713	62.5930	62.2397	7.176865	31.55378
927	5.42731	3.0849407	62.8365	62.4818	7.177145	31.55520
928	5.42601	3.0850022	63.0922	62.7360	7.177285	31.55700
929	5.42541	3.0848796	63.3298	62.9722	7.177433	31.55606
930	5.42446	3.0848551	63.5825	63.2235	7.177574	31.55655
931	5.42361	3.0849717	63.8321	63.4716	7.177627	31.55855
932	5.42376	3.0850638	64.0818	63.7198	7.177564	31.55933
933	5.42491	3.0851498	64.3223	63.9589	7.177376	31.55911
934	5.42621	3.0854995	64.5780	64.2132	7.177028	31.56172
935	5.42941	3.0857327	64.8246	64.4583	7.176497	31.56122
936	5.43271	3.0853523	65.0622	64.6946	7.176281	31.55370
937	5.43266	3.0856837	65.3056	64.9366	7.176116	31.55738
938	5.43457	3.0857942	65.5402	65.1698	7.175818	31.55673
939	5.43592	3.0849415	65.7807	65.4089	7.176105	31.54570
940	5.42926	3.0840768	66.0303	65.6571	7.177427	31.54205
941	5.41540	3.0835127	66.2709	65.8962	7.179516	31.54858
942	5.40114	3.0831204	66.5115	66.1354	7.181565	31.55743
943	5.38789	3.0829244	66.7641	66.3866	7.183381	31.56756
944	5.37964	3.0831882	66.9985	66.6197	7.184307	31.57820
945	5.37644	3.0827161	67.2420	66.8617	7.184977	31.57575
946	5.36970	3.0822502	67.4857	67.1040	7.186101	31.57671
947	5.36150	3.0821645	67.7292	67.3461	7.187208	31.58334
948	5.35465	3.0816986	67.9668	67.5823	7.188345	31.58439
949	5.34646	3.0813738	68.2194	67.8335	7.189580	31.58831
950	5.33567	3.0799086	68.4569	68.0696	7.191762	31.58174
951	5.31790	3.0795349	68.7067	68.3178	7.194261	31.59414
952	5.30188	3.0791367	68.9472	68.5570	7.196548	31.60462
953	5.28786	3.0782175	69.1998	68.8081	7.198857	31.60729
954	5.27105	3.0780155	69.4769	69.0836	7.201144	31.62073
955	5.25629	3.0774764	69.7418	69.3470	7.203347	31.62842
956	5.24259	3.0772008	69.9762	69.5800	7.205273	31.63813
957	5.23068	3.0767659	70.2381	69.8403	7.207053	31.64432
958	5.21912	3.0759756	70.4877	70.0885	7.208981	31.64614
959	5.20393	3.0754488	70.7222	70.3216	7.211236	31.65440
960	5.18781	3.0751305	70.9597	70.5577	7.213502	31.66593
961	5.17512	3.0750694	71.1972	70.7938	7.215185	31.67714
962	5.16621	3.0747326	71.4469	71.0421	7.216527	31.68163
963	5.15691	3.0743100	71.6965	71.2902	7.217967	31.68551
964	5.14557	3.0738140	71.9341	71.5265	7.219711	31.69049
965	5.13265	3.0736549	72.1867	71.7776	7.221480	31.70082
966	5.12261	3.0734652	72.4181	72.0077	7.222891	31.70807
967	5.11471	3.0731039	72.6619	72.2500	7.224118	31.71133
968	5.10462	3.0727978	72.8931	72.4798	7.225598	31.71731
969	5.09424	3.0725040	73.1398	72.7251	7.227112	31.72369
970	5.08461	3.0720571	73.3773	72.9612	7.228612	31.72763
971	5.07458	3.0718368	73.6238	73.2063	7.230040	31.73453
972	5.06525	3.0713837	73.8796	73.4606	7.231505	31.73810
973	5.05523	3.0707287	74.1323	73.7118	7.233171	31.74003
974	5.04337	3.0706370	74.3729	73.9510	7.234769	31.75015
975	5.03420	3.0704902	74.6195	74.1961	7.236048	31.75708
976	5.02696	3.0690086	74.8571	74.4324	7.237804	31.74691
977	5.02071	3.0702455	75.1036	74.6775	7.237948	31.76690
978	5.01585	3.0699395	75.3441	74.9165	7.238753	31.76791
979	5.00911	3.0697498	75.5940	75.1649	7.239740	31.77204
980	5.00267	3.0696520	75.8284	75.3980	7.240638	31.77695
981	4.99801	3.0695603	76.0871	75.6552	7.241301	31.78021
982	4.99414	3.0694747	76.3276	75.8943	7.241857	31.78280
983	4.98820	3.0695360	76.5654	76.1306	7.242603	31.78905
984	4.98191	3.0694750	76.8119	76.3758	7.243462	31.79424
985	4.97661	3.0694751	77.0615	76.6239	7.244159	31.79917
986	4.97279	3.0696283	77.3113	76.8721	7.244578	31.80445
987	4.96933	3.0697080	77.5670	77.1264	7.244992	31.80854
988	4.96250	3.0696224	77.8168	77.3747	7.245935	31.81397
989	4.94982	3.0694756	78.0542	77.6107	7.247673	31.82428
990	4.93602	3.0693044	78.3008	77.8559	7.249574	31.83539
991	4.92310	3.0690781	78.5444	78.0980	7.251388	31.84503
992	4.90693	3.0688640	78.7881	78.3403	7.253622	31.85793
993	4.88997	3.0687235	79.0255	78.5763	7.255919	31.87244
994	4.87500	3.0687114	79.2751	78.8245	7.257887	31.88653
995	4.86532	3.0686933	79.5340	79.0818	7.259168	31.89548
996	4.86151	3.0686811	79.8142	79.3604	7.259678	31.89885
997	4.85751	3.0689567	80.0821	79.6267	7.260056	31.90573
998	4.84793	3.0691712	80.3257	79.8689	7.261196	31.91727
999	4.84003	3.0690428	80.5753	80.1170	7.262305	31.92325
1000	4.83677	3.0688653	80.8219	80.3622	7.262835	31.92422
1001	4.83574	3.0689879	81.0626	80.6015	7.262908	31.92651
1002	4.83272	3.0689818	81.3062	80.8436	7.263311	31.92921
1003	4.82991	3.0688656	81.5619	81.0978	7.263749	31.93045
1004	4.82966	3.0686331	81.8024	81.3369	7.263915	31.92789
1005	4.83021	3.0687127	82.0522	81.5852	7.263806	31.92816
1006	4.83011	3.0688413	82.2867	81.8183	7.263754	31.92962
1007	4.82848	3.0687496	82.5425	82.0727	7.264023	31.93000
1008	4.82749	3.0685905	82.7739	82.3027	7.264246	31.92901
1009	4.82680	3.0685783	83.0175	82.5448	7.264349	31.92941
1010	4.82542	3.0686213	83.2519	82.7778	7.264511	31.93112
1011	4.82300	3.0686091	83.4924	83.0170	7.264840	31.93318
1012	4.82117	3.0686092	83.7332	83.2563	7.265084	31.93482
1013	4.82088	3.0685603	83.9797	83.5014	7.265156	31.93442
1014	4.82236	3.0685787	84.2142	83.7345	7.264958	31.93309
1015	4.82246	3.0685604	84.4761	83.9948	7.264961	31.93265
1016	4.82172	3.0686340	84.7136	84.2309	7.265023	31.93410
1017	4.81984	3.0685912	84.9540	84.4699	7.265298	31.93529
1018	4.81787	3.0685791	85.2009	84.7153	7.265568	31.93692
1019	4.81481	3.0686343	85.4503	84.9632	7.265944	31.94037
1020	4.81022	3.0687446	85.6941	85.2056	7.266489	31.94594
1021	4.80603	3.0687508	85.9497	85.4597	7.267041	31.94991
1022	4.80233	3.0687142	86.1874	85.6961	7.267551	31.95293
1023	4.79932	3.0686959	86.4310	85.9382	7.267960	31.95550
1024	4.79626	3.0687756	86.6807	86.1864	7.268322	31.95923
1025	4.79300	3.0688125	86.9395	86.4436	7.268734	31.96266
1026	4.78881	3.0688432	87.1770	86.6798	7.269271	31.96693
1027	4.78507	3.0688678	87.4236	86.9249	7.269754	31.97070
1028	4.78137	3.0688679	87.6703	87.1702	7.270244	31.97414
1029	4.77866	3.0688374	87.9170	87.4154	7.270622	31.97628
1030	4.77727	3.0688130	88.1605	87.6575	7.270822	31.97720
1031	4.77614	3.0688437	88.4135	87.9089	7.270959	31.97852
1032	4.77516	3.0688376	88.6478	88.1418	7.271097	31.97929
1033	4.77442	3.0688438	88.8945	88.3871	7.271197	31.97995
1034	4.77323	3.0688990	89.1350	88.6262	7.271327	31.98160
1035	4.77195	3.0687828	89.3939	88.8835	7.271565	31.98137
1036	4.76806	3.0686543	89.6315	89.1197	7.272152	31.98352
1037	4.76219	3.0686667	89.9054	89.3921	7.272920	31.98918
1038	4.75810	3.0686362	90.1763	89.6613	7.273479	31.99264
1039	4.75544	3.0687159	90.4442	89.9277	7.273789	31.99599
1040	4.75155	3.0688691	90.6850	90.1670	7.274220	32.00139
1041	4.74431	3.0691447	90.9347	90.4152	7.275022	32.01143
1042	4.73549	3.0691633	91.1844	90.6635	7.276173	32.02002
1043	4.72869	3.0693899	91.4310	90.9086	7.276944	32.02908
1044	4.72347	3.0694513	91.6777	91.1538	7.277600	32.03470
1045	4.71939	3.0694269	91.9274	91.4020	7.278155	32.03824
1046	4.71609	3.0694515	92.1710	91.6441	7.278580	32.04159
1047	4.71397	3.0694271	92.4237	91.8954	7.278877	32.04323
1048	4.71239	3.0695129	92.6704	92.1406	7.279042	32.04562
1049	4.71077	3.0696293	92.9199	92.3886	7.279196	32.04841
1050	4.70801	3.0697151	93.1576	92.6250	7.279516	32.05194
1051	4.70531	3.0697581	93.4072	92.8731	7.279853	32.05493
1052	4.70339	3.0698317	93.6570	93.1214	7.280070	32.05751
1053	4.70221	3.0699481	93.9067	93.3696	7.280166	32.05988
1054	4.70132	3.0700094	94.1534	93.6148	7.280254	32.06132
1055	4.70102	3.0699789	94.3939	93.8539	7.280315	32.06113
1056	4.70078	3.0700096	94.6437	94.1022	7.280336	32.06160
1057	4.69999	3.0702423	94.8843	94.3413	7.280316	32.06493
1058	4.69778	3.0704996	95.1279	94.5835	7.280470	32.06992
1059	4.69389	3.0706222	95.3775	94.8317	7.280917	32.07497
1060	4.69044	3.0709897	95.6273	95.0799	7.281171	32.08243
1061	4.68685	3.0714675	95.8740	95.3251	7.281382	32.09130
1062	4.68262	3.0716084	96.1175	95.5672	7.281864	32.09690
1063	4.67928	3.0716392	96.3673	95.8155	7.282292	32.10037
1064	4.67701	3.0717250	96.6139	96.0606	7.282547	32.10343
1065	4.67569	3.0717006	96.8545	96.2998	7.282740	32.10432
1066	4.67500	3.0716394	97.1042	96.5480	7.282871	32.10415
1067	4.67485	3.0717620	97.3417	96.7841	7.282828	32.10559
1068	4.67470	3.0718478	97.5885	97.0295	7.282805	32.10661
1069	4.67396	3.0722827	97.8381	97.2776	7.282666	32.11222
1070	4.67254	3.0725278	98.0786	97.5166	7.282723	32.11632
1071	4.67057	3.0728342	98.3223	97.7589	7.282816	32.12165
1072	4.66865	3.0729323	98.5660	98.0011	7.283019	32.12452
1073	4.66732	3.0730671	98.8127	98.2463	7.283124	32.12724
1074	4.66629	3.0732999	99.0503	98.4825	7.283136	32.13082
1075	4.66521	3.0738820	99.2969	98.7276	7.282960	32.13847
1076	4.66398	3.0745559	99.5496	98.9788	7.282752	32.14733
1077	4.66206	3.0755486	99.7962	99.2240	7.282457	32.16055
1078	4.65980	3.0784412	100.0368	99.4631	7.281150	32.19609
1079	4.65543	3.0824449	100.3110	99.7357	7.279502	32.24654
1080	4.64903	3.0836900	100.5789	100.0020	7.279652	32.26704
1081	4.64363	3.0843771	100.8315	100.2531	7.279983	32.28014
1082	4.63984	3.0850213	101.0692	100.4894	7.280125	32.29117
1083	4.63719	3.0857268	101.3157	100.7344	7.280086	32.30180
1084	4.63562	3.0863404	101.5594	100.9767	7.279956	32.31032
1085	4.63444	3.0868743	101.7939	101.2098	7.279818	32.31753
1086	4.63375	3.0873346	102.0376	101.4519	7.279658	32.32342
1087	4.63355	3.0883349	102.2873	101.7002	7.279132	32.33507
1088	4.63336	3.0893538	102.5371	101.9485	7.278597	32.34694
1089	4.63336	3.0907349	102.7655	102.1755	7.277833	32.36283
1090	4.63345	3.0913366	103.0122	102.4207	7.277491	32.36958
1091	4.63360	3.0917971	103.2497	102.6568	7.277221	32.37465
1092	4.63380	3.0919691	103.4933	102.8989	7.277105	32.37633
1093	4.63419	3.0920797	103.7460	103.1502	7.276999	32.37710
1094	4.63449	3.0922639	103.9897	103.3923	7.276863	32.37882
1095	4.63459	3.0922947	104.2242	103.6255	7.276839	32.37896
1096	4.63463	3.0924790	104.4710	103.8707	7.276736	32.38093
1097	4.63459	3.0929703	104.7114	104.1098	7.276475	32.38655
1098	4.63468	3.0940880	104.9552	104.3521	7.275845	32.39928
1099	4.63522	3.0945302	105.1894	104.5849	7.275534	32.40376
1100	4.63596	3.0955253	105.4393	104.8333	7.274890	32.41444
1101	4.63680	3.0958939	105.6769	105.0694	7.274582	32.41777
1102	4.63753	3.0960536	105.9175	105.3086	7.274402	32.41878
1103	4.63763	3.0961458	106.1551	105.5448	7.274344	32.41963
1104	4.63753	3.0964838	106.3771	105.7655	7.274174	32.42353
1105	4.63758	3.0966128	106.6087	105.9957	7.274101	32.42486
1106	4.63778	3.0972334	106.8524	106.2379	7.273736	32.43174
1107	4.63788	3.0974423	107.0960	106.4801	7.273613	32.43394
1108	4.63803	3.0976451	107.3274	106.7100	7.273486	32.43603
1109	4.63778	3.0979647	107.5803	106.9614	7.273347	32.43985
1110	4.63719	3.0986284	107.8056	107.1854	7.273060	32.44800
1111	4.63714	3.0992306	108.0371	107.4155	7.272736	32.45491
1112	4.63748	3.0998514	108.2777	107.6546	7.272352	32.46165
1113	4.63798	3.1001157	108.5123	107.8878	7.272146	32.46411
1114	4.63876	3.1003493	108.7558	108.1299	7.271920	32.46593
1115	4.63906	3.1003494	108.9966	108.3692	7.271887	32.46552
1116	4.63925	3.1007674	109.2280	108.5992	7.271634	32.47005
1117	4.64019	3.1037673	109.4655	108.8353	7.269849	32.50378
1118	4.64299	3.1049172	109.6938	109.0622	7.268850	32.51425
1119	4.64633	3.1049726	109.9375	109.3045	7.268390	32.51149
1120	4.64879	3.1048005	110.1874	109.5528	7.268171	32.50695
1121	4.64997	3.1050957	110.4462	109.8100	7.267860	32.50909
1122	4.65066	3.1052188	110.7049	110.0672	7.267708	32.50971
1123	4.65135	3.1053049	110.9364	110.2973	7.267576	32.50991
1124	4.65159	3.1049791	111.1618	110.5213	7.267731	32.50578
1125	4.65139	3.1045671	111.4054	110.7635	7.267991	32.50108
1126	4.65120	3.1056249	111.6458	111.0024	7.267435	32.51341
1127	4.65292	3.1086390	111.8866	111.2418	7.265541	32.54652
1128	4.65759	3.1106448	112.1181	111.4718	7.263824	32.56506
1129	4.66378	3.1132175	112.3555	111.7078	7.261595	32.58866
1130	4.67151	3.1155569	112.5993	111.9502	7.259299	32.60805
1131	4.67962	3.1158586	112.8276	112.1771	7.258083	32.60344
1132	4.68508	3.1160002	113.0713	112.4193	7.257302	32.59959
1133	4.68848	3.1165976	113.3149	112.6615	7.256536	32.60305
1134	4.69113	3.1170164	113.5527	112.8978	7.255964	32.60517
1135	4.69310	3.1162405	113.7961	113.1397	7.256145	32.59413
1136	4.69359	3.1167455	114.0336	113.3758	7.255807	32.59937
1137	4.69389	3.1162961	114.2743	113.6150	7.256024	32.59375
1138	4.69389	3.1166102	114.5089	113.8482	7.255855	32.59727
1139	4.69394	3.1178112	114.7495	114.0874	7.255189	32.61101
1140	4.69532	3.1185812	114.9960	114.3324	7.254589	32.61844
1141	4.69714	3.1207374	115.2459	114.5808	7.253164	32.64149
1142	4.70048	3.1257048	115.4866	114.8200	7.249982	32.69559
1143	4.70683	3.1291209	115.7330	115.0650	7.247274	32.72876
1144	4.71412	3.1307616	115.9767	115.3072	7.245429	32.74045
1145	4.71914	3.1313415	116.2264	115.5554	7.244465	32.74208
1146	4.72263	3.1344823	116.4761	115.8035	7.242282	32.77486
1147	4.72603	3.1353464	116.7290	116.0549	7.241371	32.78138
1148	4.72894	3.1380009	116.9727	116.2971	7.239534	32.80911
1149	4.73219	3.1386122	117.2194	116.5424	7.238782	32.81285
1150	4.73509	3.1380318	117.4660	116.7874	7.238734	32.80313
1151	4.73603	3.1371984	117.7188	117.0387	7.239081	32.79244
1152	4.73593	3.1387791	117.9592	117.2777	7.238225	32.81071
1153	4.73701	3.1402859	118.2061	117.5230	7.237258	32.82695
1154	4.73913	3.1408727	118.4406	117.7562	7.236667	32.83153
1155	4.74086	3.1388719	118.6934	118.0074	7.237557	32.80654
1156	4.74032	3.1396438	118.9401	118.2526	7.237206	32.81588
1157	4.74041	3.1393351	119.1927	118.5037	7.237370	32.81208
1158	4.74041	3.1396748	119.4397	118.7491	7.237188	32.81589
1159	4.74046	3.1402122	119.6770	118.9851	7.236890	32.82194
1160	4.74105	3.1402740	119.9177	119.2243	7.236786	32.82195
1161	4.74165	3.1403791	120.1919	119.4968	7.236658	32.82244
1162	4.74233	3.1425781	120.4597	119.7630	7.235360	32.84707
1163	4.74470	3.1430229	120.7216	120.0233	7.234816	32.84975
1164	4.74692	3.1435049	120.9684	120.2686	7.234271	32.85301
1165	4.74844	3.1423682	121.2060	120.5048	7.234708	32.83822
1166	4.74884	3.1422447	121.4557	120.7529	7.234731	32.83628
1167	4.74903	3.1443392	121.7054	121.0011	7.233555	32.86019
1168	4.75061	3.1436534	121.9703	121.2644	7.233737	32.85056
1169	4.75170	3.1459645	122.2110	121.5036	7.232327	32.87611
1170	4.75431	3.1477508	122.4606	121.7518	7.231010	32.89407
1171	4.75830	3.1524624	122.7044	121.9940	7.227902	32.94451
1172	4.76515	3.1533284	122.9509	122.2391	7.226550	32.94761
1173	4.77101	3.1538418	123.1946	122.4812	7.225519	32.94761
1174	4.77486	3.1536872	123.4385	122.7237	7.225117	32.94188
1175	4.77683	3.1540522	123.6911	122.9747	7.224669	32.94402
1176	4.77762	3.1526110	123.9377	123.2198	7.225368	32.92644
1177	4.77718	3.1562116	124.1843	123.4650	7.223446	32.96841
1178	4.78068	3.1576535	124.4310	123.7102	7.222208	32.98149
1179	4.78487	3.1585386	124.6838	123.9614	7.221189	32.98743
1180	4.78921	3.1637332	124.9245	124.2006	7.217776	33.04309
1181	4.79838	3.1677165	125.1773	124.4519	7.214415	33.07991
1182	4.80918	3.1683485	125.4210	124.6941	7.212691	33.07634
1183	4.81688	3.1681688	125.6708	124.9424	7.211812	33.06647
1184	4.82073	3.1670287	125.9174	125.1875	7.211953	33.04934
1185	4.82172	3.1680760	126.1671	125.4356	7.211257	33.06034
1186	4.82310	3.1678963	126.4168	125.6839	7.211185	33.05676
1187	4.82369	3.1676857	126.6604	125.9260	7.211231	33.05361
1188	4.82359	3.1670228	126.9010	126.1651	7.211614	33.04592
1189	4.82261	3.1658458	127.1539	126.4164	7.212393	33.03317
1190	4.82093	3.1674753	127.3944	126.6554	7.211718	33.05355
1191	4.82132	3.1682871	127.6352	126.8947	7.211227	33.06242
1192	4.82270	3.1686466	127.8788	127.1368	7.210859	33.06508
1193	4.82433	3.1692230	128.1346	127.3911	7.210340	33.06999
1194	4.82616	3.1710329	128.3752	127.6303	7.209117	33.08897
1195	4.82942	3.1713677	128.6188	127.8724	7.208523	33.08948
1196	4.83253	3.1716777	128.8625	128.1145	7.207962	33.08984
1197	4.83435	3.1716715	129.1000	128.3506	7.207738	33.08783
1198	4.83554	3.1713988	129.3407	128.5899	7.207742	33.08338
1199	4.83578	3.1715477	129.5843	128.8320	7.207634	33.08473
1200	4.83583	3.1713990	129.8465	129.0925	7.207716	33.08283
1201	4.83583	3.1713371	130.1203	129.3647	7.207757	33.08197
1202	4.83549	3.1713619	130.4005	129.6431	7.207794	33.08246
1203	4.83564	3.1712194	130.6563	129.8974	7.207860	33.08054
1204	4.83539	3.1712443	130.8909	130.1306	7.207883	33.08095
1205	4.83519	3.1709778	131.1254	130.3636	7.208060	33.07795
1206	4.83509	3.1715792	131.3630	130.5997	7.207748	33.08487
1207	4.83539	3.1718211	131.6096	130.8449	7.207584	33.08725
1208	4.83608	3.1721249	131.8411	131.0749	7.207334	33.08995
1209	4.83692	3.1721250	132.0725	131.3049	7.207233	33.08900
1210	4.83741	3.1723668	132.3133	131.5442	7.207042	33.09118
1211	4.83835	3.1730923	132.5538	131.7832	7.206530	33.09851
1212	4.83944	3.1729063	132.7945	132.0225	7.206499	33.09516
1213	4.84018	3.1727576	133.0413	132.2677	7.206492	33.09258
1214	4.84028	3.1726709	133.2848	132.5098	7.206533	33.09135
1215	4.84018	3.1726089	133.5224	132.7460	7.206586	33.09061
1216	4.83998	3.1725160	133.7629	132.9850	7.206668	33.08961
1217	4.83968	3.1732105	134.0068	133.2274	7.206330	33.09781
1218	4.84033	3.1741159	134.2474	133.4664	7.205757	33.10751
1219	4.84220	3.1742710	134.4909	133.7085	7.205438	33.10731
1220	4.84383	3.1747113	134.7255	133.9417	7.204994	33.11066
1221	4.84512	3.1744509	134.9751	134.1897	7.204979	33.10624
1222	4.84551	3.1733906	135.2007	134.4139	7.205516	33.09348
1223	4.84452	3.1741782	135.4533	134.6650	7.205216	33.10344
1224	4.84457	3.1747860	135.6909	134.9011	7.204882	33.11029
1225	4.84551	3.1742094	135.9376	135.1463	7.205085	33.10257
1226	4.84551	3.1743955	136.1814	135.3886	7.204989	33.10459
1227	4.84541	3.1738189	136.4219	135.6277	7.205324	33.09791
1228	4.84477	3.1738747	136.6565	135.8608	7.205380	33.09907
1229	4.84433	3.1747554	136.8939	136.0967	7.204959	33.10957
1230	4.84576	3.1779933	137.1377	136.3390	7.203005	33.14543
1231	4.85040	3.1779623	137.3691	136.5690	7.202436	33.14033
1232	4.85415	3.1772986	137.6068	136.8052	7.202328	33.12880
1233	4.85583	3.1799852	137.8444	137.0413	7.200646	33.15804
1234	4.85954	3.1807175	138.0819	137.2774	7.199778	33.16269
1235	4.86354	3.1813878	138.3135	137.5076	7.198906	33.16632
1236	4.86680	3.1813568	138.5510	137.7436	7.198514	33.16259
1237	4.86868	3.1813568	138.7975	137.9886	7.198281	33.16060
1238	4.86956	3.1811459	139.0322	138.2219	7.198289	33.15715
1239	4.86976	3.1812949	139.2818	138.4700	7.198188	33.15855
1240	4.86996	3.1814564	139.5163	138.7030	7.198080	33.16010
1241	4.87045	3.1820212	139.7571	138.9423	7.197713	33.16601
1242	4.87144	3.1820834	140.0280	139.2115	7.197560	33.16560
1243	4.87233	3.1828097	140.2992	139.4810	7.197055	33.17296
1244	4.87367	3.1834181	140.5488	139.7291	7.196558	33.17853
1245	4.87535	3.1833251	140.7804	139.9592	7.196401	33.17566
1246	4.87648	3.1835983	141.0118	140.1892	7.196112	33.17757
1247	4.87717	3.1830272	141.2554	140.4313	7.196343	33.17016
1248	4.87698	3.1829342	141.4931	140.6675	7.196425	33.16916
1249	4.87648	3.1837227	141.7276	140.9006	7.196062	33.17864
1250	4.87742	3.1842691	141.9589	141.1305	7.195648	33.18390
1251	4.87875	3.1847845	142.2027	141.3727	7.195202	33.18839
1252	4.88058	3.1856663	142.4464	141.6150	7.194493	33.19662
1253	4.88266	3.1856353	142.6931	141.8602	7.194252	33.19407
1254	4.88404	3.1854925	142.9184	142.0841	7.194159	33.19093
1255	4.88454	3.1853001	143.1682	142.3324	7.194208	33.18809
1256	4.88434	3.1853622	143.3966	142.5593	7.194204	33.18888
1257	4.88444	3.1854555	143.6373	142.7985	7.194146	33.18974
1258	4.88444	3.1856977	143.8871	143.0468	7.194020	33.19241
1259	4.88493	3.1859089	144.1276	143.2858	7.193847	33.19423
1260	4.88548	3.1859400	144.3711	143.5278	7.193767	33.19393
1261	4.88592	3.1863934	144.6059	143.7612	7.193468	33.19860
1262	4.88671	3.1866171	144.8433	143.9971	7.193251	33.20027
1263	4.88780	3.1873997	145.0839	144.2362	7.192690	33.20810
1264	4.88928	3.1873066	145.3277	144.4785	7.192558	33.20542
1265	4.89022	3.1882756	145.5682	144.7175	7.191914	33.21554
1266	4.89225	3.1902263	145.8028	144.9506	7.190595	33.23592
1267	4.89615	3.1907110	146.0588	145.2050	7.189840	33.23748
1268	4.89942	3.1915002	146.2779	145.4228	7.188999	33.24322
1269	4.90213	3.1919850	146.5247	145.6681	7.188395	33.24598
1270	4.90451	3.1916184	146.7561	145.8980	7.188300	33.23926
1271	4.90530	3.1915625	146.9997	146.1401	7.188236	33.23770
1272	4.90564	3.1913824	147.2433	146.3822	7.188296	33.23515
1273	4.90540	3.1914694	147.4809	146.6183	7.188285	33.23628
1274	4.90564	3.1924141	147.7095	146.8455	7.187743	33.24682
1275	4.90683	3.1930854	147.9378	147.0724	7.187231	33.25326
1276	4.90891	3.1944218	148.1908	147.3238	7.186243	33.26648
1277	4.91168	3.1951865	148.4316	147.5631	7.185480	33.27242
1278	4.91465	3.1954290	148.6660	147.7960	7.184977	33.27213
1279	4.91672	3.1956715	148.9004	148.0290	7.184586	33.27273
1280	4.91816	3.1957648	149.1349	148.2621	7.184359	33.27226
1281	4.91920	3.1960074	149.3878	148.5133	7.184101	33.27389
1282	4.91989	3.1954603	149.6495	148.7735	7.184318	33.26675
1283	4.91964	3.1952801	149.9054	149.0278	7.184454	33.26479
1284	4.91915	3.1953361	150.1431	149.2640	7.184492	33.26581
1285	4.91890	3.1953051	150.3866	149.5060	7.184546	33.26558
1286	4.91865	3.1953052	150.6303	149.7482	7.184583	33.26570
1287	4.91840	3.1952804	150.8740	149.9903	7.184634	33.26554
1288	4.91826	3.1952245	151.0994	150.2143	7.184689	33.26493
1289	4.91811	3.1953365	151.3431	150.4565	7.184653	33.26624
1290	4.91821	3.1952806	151.5775	150.6895	7.184676	33.26538
1291	4.91816	3.1954299	151.8091	150.9197	7.184606	33.26703
1292	4.91816	3.1955232	152.0499	151.1589	7.184561	33.26799
1293	4.91845	3.1957036	152.2996	151.4070	7.184431	33.26964
1294	4.91885	3.1958591	152.5340	151.6400	7.184302	33.27092
1295	4.91915	3.1957659	152.7747	151.8792	7.184321	33.26943
1296	4.91929	3.1957971	153.0182	152.1212	7.184291	33.26952
1297	4.91959	3.1959961	153.2530	152.3545	7.184150	33.27140
1298	4.91984	3.1961951	153.4873	152.5874	7.184016	33.27333
1299	4.92038	3.1969849	153.7279	152.8265	7.183521	33.28177
1300	4.92187	3.1989998	153.9624	153.0595	7.182238	33.30341
1301	4.92548	3.1998209	154.1940	153.2897	7.181338	33.30916
1302	4.92904	3.1999765	154.4347	153.5288	7.180808	33.30727
1303	4.93166	3.2004306	154.6722	153.7649	7.180234	33.30976
1304	4.93344	3.2006484	154.9067	153.9979	7.179895	33.31037
1305	4.93498	3.2008599	155.1382	154.2280	7.179591	33.31116
1306	4.93606	3.2012271	155.3849	154.4731	7.179259	33.31418
1307	4.93730	3.2014386	155.6134	154.7002	7.178992	33.31527
1308	4.93839	3.2017747	155.8538	154.9391	7.178677	33.31793
1309	4.93943	3.2028449	156.0825	155.1664	7.177967	33.32912
1310	4.94190	3.2032743	156.3291	155.4114	7.177426	33.33147
1311	4.94403	3.2039154	156.5606	155.6415	7.176812	33.33661
1312	4.94641	3.2043137	156.7951	155.8745	7.176300	33.33871
1313	4.94829	3.2044009	157.0265	156.1045	7.176020	33.33772
1314	4.94957	3.2045565	157.2641	156.3406	7.175779	33.33810
1315	4.95037	3.2047060	157.4954	156.5705	7.175603	33.33892
1316	4.95116	3.2048305	157.7391	156.8127	7.175440	33.33943
1317	4.95160	3.2047995	157.9679	157.0400	7.175406	33.33851
1318	4.95205	3.2049240	158.2144	157.2849	7.175288	33.33938
1319	4.95230	3.2049863	158.4368	157.5060	7.175228	33.33974
1320	4.95269	3.2051358	158.6774	157.7451	7.175103	33.34094
1321	4.95299	3.2051981	158.9177	157.9839	7.175037	33.34124
1322	4.95329	3.2052604	159.1677	158.2323	7.174971	33.34153
1323	4.95344	3.2052916	159.4327	158.4956	7.174942	33.34161
1324	4.95388	3.2054099	159.6825	158.7439	7.174827	33.34240
1325	4.95408	3.2055345	159.9259	158.9858	7.174740	33.34352
1326	4.95443	3.2055968	160.1515	159.2099	7.174668	33.34377
1327	4.95472	3.2057463	160.3953	159.4522	7.174555	33.34507
1328	4.95522	3.2059331	160.6237	159.6791	7.174396	33.34662
1329	4.95576	3.2062071	160.8642	159.9181	7.174183	33.34911
1330	4.95665	3.2070351	161.0897	160.1422	7.173625	33.35765
1331	4.95819	3.2074398	161.3362	160.3872	7.173216	33.36065
1332	4.96007	3.2076453	161.5708	160.6204	7.172872	33.36102
1333	4.96136	3.2080127	161.8053	160.8534	7.172515	33.36384
1334	4.96274	3.2082556	162.0370	161.0836	7.172213	33.36514
1335	4.96373	3.2084113	162.2714	161.3166	7.172009	33.36582
1336	4.96482	3.2085671	162.5086	161.5522	7.171792	33.36640
1337	4.96547	3.2087166	162.7403	161.7824	7.171635	33.36737
1338	4.96626	3.2088723	162.9688	162.0096	7.171456	33.36825
1339	4.96680	3.2090218	163.2032	162.2424	7.171311	33.36931
1340	4.96725	3.2093021	163.4440	162.4818	7.171108	33.37197
1341	4.96829	3.2099125	163.6786	162.7149	7.170650	33.37784
1342	4.96958	3.2101866	163.9038	162.9387	7.170344	33.37960
1343	4.97091	3.2105229	164.1445	163.1779	7.169998	33.38201
1344	4.97225	3.2106725	164.3790	163.4109	7.169753	33.38228
1345	4.97329	3.2107722	164.5982	163.6287	7.169573	33.38228
1346	4.97383	3.2108283	164.8358	163.8648	7.169479	33.38226
1347	4.97438	3.2108595	165.0795	164.1070	7.169399	33.38195
1348	4.97468	3.2108596	165.3110	164.3370	7.169367	33.38153
1349	4.97483	3.2107974	165.5428	164.5674	7.169388	33.38055
1350	4.97463	3.2107725	165.7801	164.8031	7.169432	33.38034
1351	4.97453	3.2107726	166.0056	165.0273	7.169450	33.38032
1352	4.97473	3.2110779	166.2430	165.2632	7.169265	33.38352
1353	4.97517	3.2114143	166.4594	165.4782	7.169031	33.38684
1354	4.97596	3.2116261	166.7000	165.7173	7.168821	33.38837
1355	4.97671	3.2116573	166.9316	165.9474	7.168716	33.38787
1356	4.97730	3.2115951	167.1629	166.1772	7.168680	33.38644
1357	4.97750	3.2116263	167.4006	166.4135	7.168644	33.38648
1358	4.97770	3.2116887	167.6319	166.6434	7.168591	33.38688
1359	4.97770	3.2116763	167.8788	166.8886	7.168603	33.38661
1360	4.97780	3.2117823	168.1071	167.1155	7.168539	33.38762
1361	4.97780	3.2117823	168.3479	167.3549	7.168544	33.38749
1362	4.97809	3.2118759	168.5732	167.5787	7.168462	33.38816
1363	4.97844	3.2126982	168.8228	167.8268	7.167976	33.39716
1364	4.97973	3.2131593	169.0785	168.0808	7.167569	33.40105
1365	4.98126	3.2131905	169.3406	168.3413	7.167365	33.39974
1366	4.98250	3.2135270	169.5813	168.5804	7.167031	33.40225
1367	4.98349	3.2135271	169.7976	168.7954	7.166911	33.40115
1368	4.98409	3.2137141	170.0260	169.0224	7.166740	33.40260
1369	4.98473	3.2141129	170.2664	169.2612	7.166448	33.40642
1370	4.98567	3.2145117	170.4982	169.4915	7.166118	33.40996
1371	4.98691	3.2145741	170.7295	169.7214	7.165933	33.40932
1372	4.98790	3.2157083	170.9763	169.9666	7.165198	33.42126
1373	4.98988	3.2162319	171.2016	170.1906	7.164669	33.42520
1374	4.99221	3.2162008	171.4422	170.4296	7.164398	33.42238
1375	4.99365	3.2162694	171.6767	170.6626	7.164185	33.42161
1376	4.99424	3.2158332	171.9083	170.8927	7.164353	33.41587
1377	4.99395	3.2158582	172.1429	171.1258	7.164382	33.41634
1378	4.99385	3.2161387	172.3775	171.3589	7.164248	33.41955
1379	4.99404	3.2160453	172.6118	171.5918	7.164279	33.41816
1380	4.99414	3.2160454	172.8465	171.8250	7.164273	33.41794
1381	4.99419	3.2160143	173.0777	172.0548	7.164289	33.41741
1382	4.99414	3.2161702	173.3215	172.2970	7.164216	33.41913
1383	4.99424	3.2166626	173.5500	172.5240	7.163941	33.42459
1384	4.99509	3.2166315	173.7875	172.7601	7.163858	33.42327
1385	4.99573	3.2167812	174.0189	172.9900	7.163701	33.42423
1386	4.99627	3.2168124	174.2505	173.2201	7.163621	33.42392
1387	4.99672	3.2169371	174.4909	173.4590	7.163503	33.42479
1388	4.99707	3.2170868	174.7165	173.6831	7.163383	33.42605
1389	4.99756	3.2169373	174.9571	173.9222	7.163408	33.42371
1390	4.99746	3.2169373	175.1853	174.1490	7.163426	33.42370
1391	4.99741	3.2169997	175.4292	174.3913	7.163404	33.42434
1392	4.99741	3.2171182	175.6698	174.6304	7.163345	33.42558
1393	4.99771	3.2171183	175.9073	174.8664	7.163313	33.42516
1394	4.99796	3.2172119	176.1510	175.1085	7.163237	33.42587
1395	4.99806	3.2171808	176.3886	175.3447	7.163247	33.42529
1396	4.99816	3.2172120	176.6289	175.5835	7.163224	33.42543
1397	4.99821	3.2171809	176.8698	175.8228	7.163240	33.42490
1398	4.99826	3.2172745	177.1589	176.1101	7.163190	33.42578
1399	4.99821	3.2173058	177.4666	176.4158	7.163186	33.42603
1400	4.99841	3.2173370	177.7437	176.6912	7.163151	33.42605
1401	4.99855	3.2173371	177.9965	176.9424	7.163138	33.42578
1402	4.99845	3.2174307	178.2279	177.1723	7.163106	33.42684
1403	4.99870	3.2175803	178.4627	177.4056	7.162999	33.42819
1404	4.99895	3.2176739	178.6940	177.6354	7.162922	33.42890
1405	4.99940	3.2177675	178.9468	177.8867	7.162821	33.42941
1406	4.99984	3.2181042	179.2116	178.1497	7.162588	33.43270
1407	5.00049	3.2182289	179.4919	178.4283	7.162446	33.43335
1408	5.00113	3.2184410	179.7387	178.6735	7.162256	33.43502
1409	5.00173	3.2183787	179.9943	178.9275	7.162221	33.43358
1410	5.00212	3.2183476	180.2321	179.1638	7.162194	33.43270
1411	5.00217	3.2183789	180.4879	179.4180	7.162177	33.43288
1412	5.00222	3.2185348	180.7345	179.6630	7.162091	33.43450
1413	5.00277	3.2191520	180.9689	179.8959	7.161693	33.44094
1414	5.00376	3.2196384	181.2187	180.1440	7.161310	33.44542
1415	5.00514	3.2197632	181.4625	180.3863	7.161073	33.44535
1416	5.00628	3.2198880	181.7121	180.6344	7.160868	33.44551
1417	5.00703	3.2198569	181.9617	180.8823	7.160798	33.44428
1418	5.00742	3.2198881	182.2177	181.1368	7.160737	33.44411
1419	5.00767	3.2199194	182.4613	181.3788	7.160694	33.44410
1420	5.00777	3.2199818	182.7263	181.6421	7.160654	33.44459
1421	5.00807	3.2201003	182.9669	181.8812	7.160558	33.44553
1422	5.00827	3.2205306	183.2257	182.1383	7.160306	33.45015
1423	5.00926	3.2216719	183.4754	182.3864	7.159567	33.46217
1424	5.01119	3.2214537	183.7314	182.6408	7.159449	33.45759
1425	5.01263	3.2226263	183.9748	182.8827	7.158637	33.46953
1426	5.01501	3.2224704	184.2279	183.1341	7.158429	33.46522
1427	5.01620	3.2215786	184.4895	183.3940	7.158769	33.45362
1428	5.01565	3.2216411	184.7211	183.6241	7.158809	33.45477
1429	5.01496	3.2214540	184.9890	183.8904	7.159005	33.45318
1430	5.01441	3.2217348	185.2297	184.1295	7.158927	33.45684
1431	5.01451	3.2219469	185.4736	184.3718	7.158805	33.45905
1432	5.01501	3.2227765	185.7233	184.6199	7.158298	33.46798
1433	5.01640	3.2239305	185.9669	184.8620	7.157503	33.47975
1434	5.01902	3.2236374	186.2286	185.1221	7.157338	33.47361
1435	5.02106	3.2255777	186.4844	185.3761	7.156036	33.49377
1436	5.02418	3.2259209	186.7494	185.6395	7.155463	33.49445
1437	5.02706	3.2258585	187.0081	185.8966	7.155142	33.49072
1438	5.02859	3.2259210	187.2488	186.1357	7.154921	33.48977
1439	5.02934	3.2261644	187.5046	186.3899	7.154701	33.49170
1440	5.02993	3.2258899	187.7545	186.6381	7.154782	33.48781
1441	5.03023	3.2259774	188.0072	186.8893	7.154703	33.48839
1442	5.03028	3.2261334	188.2690	187.1493	7.154618	33.49001
1443	5.03043	3.2262271	188.5249	187.4037	7.154555	33.49080
1444	5.03077	3.2262896	188.7807	187.6578	7.154483	33.49105
1445	5.03107	3.2262585	189.0246	187.9001	7.154469	33.49026
1446	5.03107	3.2262897	189.2804	188.1543	7.154458	33.49049
1447	5.03122	3.2262898	189.5331	188.4054	7.154445	33.49022
1448	5.03122	3.2263211	189.8100	188.6805	7.154435	33.49044
1449	5.03132	3.2263836	190.1055	188.9741	7.154396	33.49091
1450	5.03142	3.2262589	190.3824	189.2493	7.154457	33.48923
1451	5.03127	3.2261654	190.6415	189.5066	7.154533	33.48817
1452	5.03112	3.2261342	190.8882	189.7518	7.154575	33.48784
1453	5.03087	3.2262591	191.1468	190.0088	7.154544	33.48939
1454	5.03077	3.2261032	191.3935	190.2539	7.154647	33.48757
1455	5.03077	3.2263529	191.6465	190.5052	7.154518	33.49032
1456	5.03097	3.2264154	191.9021	190.7592	7.154465	33.49071
1457	5.03117	3.2264404	192.1793	191.0346	7.154433	33.49065
1458	5.03132	3.2264717	192.4200	191.2738	7.154403	33.49074
1459	5.03142	3.2265966	192.6940	191.5460	7.154330	33.49194
1460	5.03162	3.2266902	192.9498	191.8002	7.154260	33.49269
1461	5.03211	3.2267839	193.2055	192.0542	7.154153	33.49314
1462	5.03236	3.2268464	193.4493	192.2965	7.154094	33.49349
1463	5.03256	3.2268153	193.7174	192.5629	7.154092	33.49279
1464	5.03261	3.2266344	193.9728	192.8166	7.154190	33.49053
1465	5.03236	3.2265970	194.2318	193.0739	7.154248	33.49022
1466	5.03221	3.2266283	194.4816	193.3222	7.154256	33.49060
1467	5.03206	3.2266284	194.7375	193.5763	7.154280	33.49062
1468	5.03206	3.2266909	194.9872	193.8245	7.154253	33.49121
1469	5.03206	3.2266909	195.2459	194.0816	7.154259	33.49108
1470	5.03211	3.2267222	195.4925	194.3266	7.154241	33.49127
1471	5.03206	3.2267535	195.7577	194.5900	7.154237	33.49154
1472	5.03221	3.2267848	196.0045	194.8352	7.154207	33.49163
1473	5.03231	3.2267537	196.2571	195.0862	7.154218	33.49104
1474	5.03236	3.2267849	196.5160	195.3434	7.154201	33.49122
1475	5.03236	3.2267538	196.7688	195.5946	7.154224	33.49073
1476	5.03231	3.2268163	197.0182	195.8424	7.154202	33.49138
1477	5.03236	3.2268788	197.2715	196.0940	7.154168	33.49192
1478	5.03231	3.2268476	197.5209	196.3419	7.154197	33.49148
1479	5.03241	3.2268165	197.7888	196.6081	7.154208	33.49089
1480	5.03231	3.2268478	198.0386	196.8563	7.154209	33.49122
1481	5.03236	3.2267855	198.2854	197.1015	7.154243	33.49033
1482	5.03216	3.2267856	198.5382	197.3526	7.154274	33.49040
1483	5.03201	3.2268168	198.7879	197.6007	7.154282	33.49078
1484	5.03206	3.2268481	199.0467	197.8578	7.154265	33.49096
1485	5.03206	3.2268170	199.2934	198.1029	7.154287	33.49048
1486	5.03226	3.2268483	199.5550	198.3629	7.154252	33.49050
1487	5.03216	3.2269108	199.8171	198.6233	7.154237	33.49119
1488	5.03236	3.2269358	200.0577	198.8623	7.154204	33.49116
1489	5.03236	3.2270295	200.3104	199.1134	7.154159	33.49211
1490	5.03261	3.2270296	200.5786	199.3798	7.154134	33.49172
1491	5.03276	3.2271232	200.8496	199.6491	7.154071	33.49251
1492	5.03276	3.2269985	201.1175	199.9153	7.154145	33.49094
1493	5.03286	3.2274916	201.3735	200.1696	7.153872	33.49639
1494	5.03340	3.2275853	201.6383	200.4327	7.153759	33.49678
1495	5.03405	3.2278038	201.8880	200.6808	7.153565	33.49852
1496	5.03474	3.2277415	202.1285	200.9198	7.153518	33.49699
1497	5.03504	3.2276479	202.3844	201.1740	7.153537	33.49548
1498	5.03514	3.2278040	202.6309	201.4189	7.153446	33.49705
1499	5.03514	3.2279539	202.8928	201.6791	7.153371	33.49864
1500	5.03553	3.2281100	203.1336	201.9183	7.153242	33.49992
1501	5.03608	3.2281725	203.3955	202.1785	7.153146	33.49996
1502	5.03633	3.2282038	203.6481	202.4295	7.153104	33.49994
1503	5.03658	3.2281414	203.9008	202.6806	7.153113	33.49885
1504	5.03673	3.2280167	204.1475	202.9257	7.153168	33.49714
1505	5.03648	3.2280480	204.4096	203.1861	7.153188	33.49761
1506	5.03643	3.2281729	204.6595	203.4343	7.153133	33.49897
1507	5.03648	3.2284788	204.9091	203.6823	7.152966	33.50231
1508	5.03702	3.2287285	205.1617	203.9333	7.152769	33.50451
1509	5.03792	3.2290032	205.4085	204.1785	7.152514	33.50665
1510	5.03866	3.2294340	205.6735	204.4418	7.152193	33.51073
1511	5.03965	3.2294965	205.9140	204.6807	7.152040	33.51033
1512	5.04079	3.2297150	206.1759	204.9410	7.151785	33.51156
1513	5.04139	3.2296215	206.4163	205.1798	7.151767	33.50977
1514	5.04213	3.2304268	206.6753	205.4371	7.151243	33.51815
1515	5.04307	3.2306080	206.9310	205.6912	7.151033	33.51916
1516	5.04421	3.2304519	207.1838	205.9423	7.150980	33.51609
1517	5.04471	3.2304270	207.4398	206.1967	7.150938	33.51518
1518	5.04476	3.2306082	207.6804	206.4357	7.150839	33.51709
1519	5.04501	3.2297780	207.9360	206.6896	7.151264	33.50716
1520	5.04392	3.2297780	208.1860	206.9380	7.151407	33.50813
1521	5.04307	3.2295596	208.4354	207.1858	7.151637	33.50634
1522	5.04228	3.2293475	208.6820	207.4308	7.151857	33.50457
1523	5.04164	3.2295910	208.9257	207.6729	7.151812	33.50789
1524	5.04144	3.2296535	209.1819	207.9274	7.151809	33.50868
1525	5.04139	3.2293165	209.4373	208.1812	7.152004	33.50472
1526	5.04109	3.2292230	209.6839	208.4262	7.152098	33.50382
1527	5.04064	3.2292543	209.9186	208.6593	7.152143	33.50451
1528	5.04040	3.2292231	210.1774	208.9165	7.152197	33.50427
1529	5.04000	3.2292856	210.4268	209.1642	7.152219	33.50526
1530	5.04000	3.2294355	210.6769	209.4127	7.152144	33.50686
1531	5.04020	3.2298726	210.9481	209.6821	7.151889	33.51155
1532	5.04104	3.2300225	211.2311	209.9632	7.151708	33.51228
1533	5.04188	3.2304845	211.5082	210.2386	7.151359	33.51661
1534	5.04307	3.2306407	211.7638	210.4925	7.151131	33.51708
1535	5.04397	3.2307032	212.0107	210.7378	7.150991	33.51678
1536	5.04461	3.2302475	212.2575	210.9830	7.151162	33.51077
1537	5.04431	3.2296857	212.5039	211.2278	7.151510	33.50448
1538	5.04322	3.2299043	212.7569	211.4791	7.151535	33.50796
1539	5.04268	3.2301479	213.0096	211.7302	7.151477	33.51118
1540	5.04273	3.2300543	213.2561	211.9751	7.151528	33.50993
1541	5.04263	3.2298733	213.5090	212.2263	7.151644	33.50782
1542	5.04243	3.2299296	213.7647	212.4804	7.151645	33.50853
1543	5.04233	3.2299609	214.0053	212.7194	7.151646	33.50887
1544	5.04238	3.2299922	214.2551	212.9676	7.151629	33.50905
1545	5.04233	3.2300859	214.5017	213.2126	7.151590	33.51006
1546	5.04238	3.2297177	214.7513	213.4605	7.151789	33.50565
1547	5.04208	3.2294993	215.0009	213.7085	7.151951	33.50330
1548	5.04144	3.2295618	215.2480	213.9540	7.152004	33.50455
1549	5.04089	3.2295306	215.5066	214.2109	7.152096	33.50460
1550	5.04064	3.2295931	215.7594	214.4620	7.152099	33.50544
1551	5.04069	3.2295620	216.0031	214.7042	7.152115	33.50491
1552	5.04059	3.2294684	216.2467	214.9462	7.152184	33.50381
1553	5.04044	3.2298431	216.4994	215.1972	7.152006	33.50814
1554	5.04099	3.2298431	216.7461	215.4423	7.151943	33.50747
1555	5.04124	3.2310107	216.9927	215.6873	7.151286	33.52053
1556	5.04307	3.2316288	217.2457	215.9386	7.150727	33.52567
1557	5.04560	3.2320597	217.5013	216.1925	7.150182	33.52795
1558	5.04764	3.2324657	217.7508	216.4405	7.149713	33.53045
1559	5.04932	3.2325594	217.9946	216.6826	7.149456	33.52971
1560	5.05037	3.2325844	218.2535	216.9398	7.149318	33.52882
1561	5.05106	3.2326469	218.4880	217.1728	7.149203	33.52873
1562	5.05151	3.2327407	218.7346	217.4178	7.149102	33.52923
1563	5.05190	3.2327408	219.0026	217.6840	7.149058	33.52870
1564	5.05195	3.2326784	219.2460	217.9259	7.149092	33.52781
1565	5.05205	3.2326160	219.4840	218.1623	7.149119	33.52687
1566	5.05185	3.2326161	219.7365	218.4131	7.149150	33.52694
1567	5.05185	3.2325850	219.9774	218.6525	7.149172	33.52646
1568	5.05171	3.2326163	220.2238	218.8973	7.149180	33.52685
1569	5.05166	3.2325851	220.4794	219.1512	7.149209	33.52641
1570	5.05146	3.2326164	220.7231	219.3933	7.149223	33.52684
1571	5.05151	3.2326165	220.9697	219.6382	7.149222	33.52667
1572	5.05161	3.2326478	221.2198	219.8867	7.149199	33.52680
1573	5.05156	3.2327103	221.5029	220.1679	7.149178	33.52743
1574	5.05161	3.2326480	221.7892	220.4524	7.149213	33.52652
1575	5.05156	3.2326168	222.0417	220.7032	7.149242	33.52608
1576	5.05156	3.2326169	222.3065	220.9662	7.149248	33.52595
1577	5.05161	3.2327106	222.5596	221.2177	7.149197	33.52685
1578	5.05161	3.2327419	222.8121	221.4686	7.149186	33.52708
1579	5.05161	3.2328357	223.0619	221.7167	7.149141	33.52803
1580	5.05180	3.2327421	223.3056	221.9588	7.149173	33.52663
1581	5.05195	3.2327422	223.5674	222.2189	7.149160	33.52635
1582	5.05166	3.2327735	223.8108	222.4607	7.149187	33.52688
1583	5.05180	3.2329609	224.0728	222.7210	7.149073	33.52876
1584	5.05210	3.2330547	224.3256	222.9722	7.148991	33.52941
1585	5.05235	3.2331422	224.5784	223.2233	7.148918	33.53004
1586	5.05270	3.2332671	224.8339	223.4771	7.148813	33.53099
1587	5.05300	3.2332485	225.0871	223.7287	7.148792	33.53035
1588	5.05309	3.2332985	225.3547	223.9945	7.148759	33.53069
1589	5.05344	3.2334235	225.6018	224.2399	7.148653	33.53166
1590	5.05379	3.2334548	225.8573	224.4937	7.148599	33.53154
1591	5.05404	3.2336110	226.1070	224.7418	7.148489	33.53296
1592	5.05429	3.2336111	226.3781	225.0111	7.148465	33.53257
1593	5.05438	3.2336112	226.6186	225.2500	7.148458	33.53235
1594	5.05453	3.2336112	226.8838	225.5134	7.148446	33.53207
1595	5.05468	3.2336425	227.1455	225.7734	7.148416	33.53215
1596	5.05468	3.2338237	227.3921	226.0184	7.148324	33.53410
1597	5.05503	3.2339487	227.6571	226.2817	7.148219	33.53506
1598	5.05543	3.2340737	227.9158	226.5387	7.148108	33.53597
1599	5.05572	3.2339801	228.1685	226.7897	7.148127	33.53446
1600	5.05592	3.2339490	228.4273	227.0468	7.148125	33.53377
1601	5.05587	3.2340115	228.6831	227.3009	7.148104	33.53441
1602	5.05597	3.2341677	228.9419	227.5580	7.148013	33.53598
1603	5.05617	3.2341990	229.1975	227.8119	7.147977	33.53601
1604	5.05637	3.2342553	229.4596	228.0723	7.147928	33.53632
1605	5.05657	3.2341679	229.6971	228.3082	7.147956	33.53500
1606	5.05662	3.2342555	229.9562	228.5656	7.147909	33.53583
1607	5.05667	3.2342306	230.2179	228.8256	7.147922	33.53536
1608	5.05652	3.2342556	230.4707	229.0767	7.147933	33.53567
1609	5.05657	3.2342307	230.7297	229.3340	7.147947	33.53520
1610	5.05657	3.2342558	230.9916	229.5942	7.147940	33.53535
1611	5.05657	3.2343183	231.2562	229.8571	7.147912	33.53594
1612	5.05672	3.2344433	231.5150	230.1142	7.147832	33.53710
1613	5.05687	3.2345059	231.7772	230.3746	7.147786	33.53753
1614	5.05721	3.2344747	232.0631	230.6586	7.147766	33.53668
1615	5.05726	3.2345060	232.3646	230.9581	7.147750	33.53684
1616	5.05726	3.2346623	232.6387	231.2304	7.147672	33.53849
1617	5.05751	3.2346936	232.9008	231.4908	7.147630	33.53847
1618	5.05776	3.2346624	233.1535	231.7418	7.147622	33.53774
1619	5.05781	3.2346000	233.4215	232.0081	7.147656	33.53683
1620	5.05771	3.2345377	233.6709	232.2558	7.147708	33.53609
1621	5.05776	3.2345690	233.9360	232.5192	7.147691	33.53627
1622	5.05761	3.2345378	234.1977	232.7791	7.147733	33.53592
1623	5.05746	3.2344130	234.4594	233.0391	7.147825	33.53451
1624	5.05716	3.2345068	234.7216	233.2995	7.147818	33.53575
1625	5.05721	3.2348441	234.9832	233.5594	7.147636	33.53945
1626	5.05761	3.2348442	235.2423	233.8168	7.147592	33.53892
1627	5.05806	3.2348755	235.4981	234.0709	7.147525	33.53870
1628	5.05835	3.2349068	235.7659	234.3369	7.147477	33.53863
1629	5.05845	3.2349069	236.0248	234.5941	7.147471	33.53840
1630	5.05860	3.2351256	236.2838	234.8514	7.147340	33.54063
1631	5.05880	3.2350008	236.5364	235.1023	7.147389	33.53887
1632	5.05895	3.2350008	236.7952	235.3594	7.147376	33.53859
1633	5.05885	3.2350009	237.0690	235.6314	7.147395	33.53855
1634	5.05900	3.2350322	237.3310	235.8917	7.147366	33.53863
1635	5.05890	3.2350011	237.5961	236.1550	7.147401	33.53823
1636	5.05885	3.2350636	237.8486	236.4058	7.147380	33.53887
1637	5.05895	3.2355260	238.1137	236.6691	7.147124	33.54396
1638	5.05979	3.2357447	238.3755	236.9292	7.146906	33.54549
1639	5.06074	3.2358072	238.6342	237.1861	7.146760	33.54513
1640	5.06123	3.2357136	238.9052	237.4554	7.146755	33.54342
1641	5.06163	3.2359323	239.1613	237.7098	7.146593	33.54540
1642	5.06198	3.2361136	239.4231	237.9698	7.146457	33.54701
1643	5.06247	3.2361136	239.6820	238.2270	7.146401	33.54638
1644	5.06282	3.2359888	239.9529	238.4961	7.146432	33.54446
1645	5.06287	3.2359888	240.2026	238.7441	7.146431	33.54428
1646	5.06267	3.2359639	240.4737	239.0135	7.146476	33.54406
1647	5.06262	3.2357766	240.7354	239.2735	7.146590	33.54182
1648	5.06213	3.2357455	241.0002	239.5364	7.146675	33.54183
1649	5.06193	3.2357768	241.2532	239.7878	7.146689	33.54226
1650	5.06178	3.2357456	241.5209	240.0537	7.146731	33.54191
1651	5.06163	3.2358082	241.7918	240.3228	7.146723	33.54264
1652	5.06163	3.2358395	242.0418	240.5711	7.146712	33.54288
1653	5.06178	3.2358396	242.3066	240.8341	7.146699	33.54260
1654	5.06183	3.2359021	242.5746	241.1004	7.146666	33.54313
1655	5.06188	3.2357773	242.8486	241.3725	7.146733	33.54150
1656	5.06188	3.2357461	243.1471	241.6691	7.146757	33.54100
1657	5.06143	3.2357775	243.4148	241.9350	7.146803	33.54167
1658	5.06138	3.2359025	243.6827	242.2011	7.146748	33.54302
1659	5.06153	3.2359338	243.9478	242.4644	7.146719	33.54310
1660	5.06168	3.2359651	244.2128	242.7276	7.146689	33.54317
1661	5.06198	3.2360214	244.4747	242.9878	7.146628	33.54339
1662	5.06203	3.2360527	244.7456	243.2569	7.146611	33.54356
1663	5.06222	3.2359341	245.0107	243.5203	7.146657	33.54186
1664	5.06208	3.2358405	245.2662	243.7741	7.146732	33.54081
1665	5.06183	3.2359343	245.5218	244.0280	7.146718	33.54201
1666	5.06158	3.2361468	245.7899	244.2942	7.146641	33.54456
1667	5.06188	3.2361468	246.0549	244.5575	7.146610	33.54413
1668	5.06227	3.2366092	246.3164	244.8173	7.146316	33.54891
1669	5.06302	3.2367030	246.5786	245.0777	7.146179	33.54911
1670	5.06371	3.2367343	246.8404	245.3377	7.146081	33.54864
1671	5.06421	3.2367344	247.0933	245.5889	7.146025	33.54801
1672	5.06446	3.2366720	247.3579	245.8518	7.146033	33.54691
1673	5.06461	3.2367658	247.6138	246.1060	7.145970	33.54771
1674	5.06466	3.2368283	247.8665	246.3570	7.145936	33.54825
1675	5.06490	3.2370159	248.1254	246.6141	7.145810	33.55003
1676	5.06530	3.2369222	248.3813	246.8683	7.145817	33.54842
1677	5.06540	3.2369223	248.6430	247.1283	7.145811	33.54819
1678	5.06525	3.2368287	248.8956	247.3792	7.145886	33.54714
1679	5.06525	3.2367788	249.1485	247.6304	7.145919	33.54644
1680	5.06515	3.2366414	249.4223	247.9024	7.146012	33.54482
1681	5.06490	3.2365790	249.6692	248.1476	7.146083	33.54423
1682	5.06466	3.2365791	249.9341	248.4107	7.146120	33.54434
1683	5.06436	3.2365229	250.1838	248.6588	7.146194	33.54387
1684	5.06406	3.2364918	250.4334	248.9067	7.146254	33.54368
1685	5.06391	3.2364919	250.6925	249.1640	7.146279	33.54370
1686	5.06376	3.2365232	250.9448	249.4147	7.146287	33.54408
1687	5.06376	3.2365795	251.2037	249.6719	7.146262	33.54460
1688	5.06391	3.2366108	251.4595	249.9259	7.146233	33.54468
1689	5.06391	3.2366109	251.7154	250.1801	7.146239	33.54455
1690	5.06396	3.2366734	251.9830	250.4459	7.146205	33.54509
1691	5.06426	3.2368297	252.2298	250.6911	7.146089	33.54646
1692	5.06456	3.2370172	252.4858	250.9453	7.145957	33.54819
1693	5.06505	3.2373859	252.7507	251.2085	7.145701	33.55179
1694	5.06600	3.2375422	253.0094	251.4654	7.145505	33.55251
1695	5.06694	3.2375735	253.2621	251.7164	7.145376	33.55179
1696	5.06758	3.2375423	253.5239	251.9765	7.145318	33.55066
1697	5.06773	3.2374175	253.8010	252.2517	7.145373	33.54893
1698	5.06768	3.2372613	254.0751	252.5239	7.145470	33.54705
1699	5.06729	3.2374489	254.3433	252.7904	7.145425	33.54947
1700	5.06744	3.2376364	254.6016	253.0470	7.145311	33.55134
1701	5.06763	3.2377615	254.8667	253.3103	7.145225	33.55244
1702	5.06813	3.2377865	255.1133	253.5552	7.145155	33.55211
1703	5.06848	3.2378178	255.3720	253.8121	7.145101	33.55199
1704	5.06858	3.2379116	255.6343	254.0726	7.145044	33.55283
1705	5.06883	3.2380054	255.8900	254.3267	7.144968	33.55353
1706	5.06902	3.2380680	256.1395	254.5745	7.144916	33.55393
1707	5.06917	3.2380056	256.3894	254.8227	7.144937	33.55293
1708	5.06932	3.2380994	256.6297	255.0614	7.144873	33.55374
1709	5.06947	3.2381307	256.8367	255.2670	7.144842	33.55385
1710	5.06952	3.2380995	256.9982	255.4275	7.144857	33.55336
1711	5.06972	3.2380995	257.0868	255.5155	7.144834	33.55311
1712	5.06962	3.2381933	257.1020	255.5306	7.144796	33.55428
1713	5.06982	3.2381620	257.0688	255.4975	7.144787	33.55374
1714	5.07002	3.2382245	257.0567	255.4856	7.144728	33.55427
1715	5.07056	3.2383182	257.0568	255.4857	7.144609	33.55479
1716	5.07111	3.2383495	257.0847	255.5133	7.144525	33.55459
1717	5.07165	3.2383807	257.1273	255.5556	7.144440	33.55438
1718	5.07220	3.2384057	257.1513	255.5795	7.144359	33.55411
1719	5.07245	3.2383807	257.1698	255.5978	7.144342	33.55356
1720	5.07245	3.2383495	257.1760	255.6040	7.144359	33.55320
1721	5.07245	3.2384057	257.1854	255.6134	7.144329	33.55384
1722	5.07285	3.2384995	257.2039	255.6318	7.144229	33.55451
1723	5.07329	3.2385307	257.2224	255.6501	7.144156	33.55441
1724	5.07369	3.2384682	257.2469	255.6744	7.144141	33.55328
1725	5.07399	3.2384682	257.2592	255.6866	7.144104	33.55298
1726	5.07399	3.2384057	257.2774	255.7048	7.144138	33.55225
1727	5.07344	3.2383495	257.2807	255.7080	7.144237	33.55215
1728	5.07299	3.2384370	257.2445	255.6721	7.144245	33.55362
1729	5.07299	3.2383807	257.1320	255.5604	7.144273	33.55303
1730	5.07299	3.2385931	256.9801	255.4094	7.144154	33.55555
1731	5.07364	3.2386556	256.8186	255.2490	7.144036	33.55570
1732	5.07463	3.2385930	256.6574	255.0889	7.143941	33.55407
1733	5.07523	3.2387179	256.4997	254.9323	7.143795	33.55498
1734	5.07577	3.2386554	256.3292	254.7629	7.143757	33.55380
1735	5.07617	3.2386553	256.1650	254.5998	7.143703	33.55349
1736	5.07612	3.2386240	255.9858	254.4218	7.143722	33.55327
1737	5.07622	3.2385615	255.8094	254.2466	7.143739	33.55254
1738	5.07592	3.2385614	255.6241	254.0626	7.143772	33.55293
1739	5.07572	3.2384989	255.4292	253.8690	7.143826	33.55251
1740	5.07558	3.2384363	255.2285	253.6696	7.143874	33.55204
1741	5.07538	3.2383488	255.0279	253.4704	7.143941	33.55134
1742	5.07483	3.2382862	254.8241	253.2679	7.144038	33.55127
1743	5.07453	3.2382862	254.6115	253.0568	7.144071	33.55168
1744	5.07409	3.2381924	254.3984	252.8451	7.144172	33.55116
1745	5.07374	3.2381298	254.1884	252.6365	7.144245	33.55089
1746	5.07369	3.2380985	253.9789	252.4284	7.144263	33.55069
1747	5.07339	3.2379735	253.7782	252.2290	7.144363	33.54965
1748	5.07285	3.2379110	253.5833	252.0355	7.144461	33.54958
1749	5.07255	3.2379421	253.3768	251.8304	7.144476	33.55034
1750	5.07230	3.2378171	253.1790	251.6339	7.144570	33.54925
1751	5.07200	3.2377608	252.9785	251.4347	7.144633	33.54901
1752	5.07170	3.2376358	252.7745	251.2321	7.144733	33.54797
1753	5.07126	3.2376357	252.5829	251.0418	7.144785	33.54852
1754	5.07091	3.2376357	252.3700	250.8303	7.144823	33.54897
1755	5.07096	3.2375731	252.1695	250.6311	7.144846	33.54831
1756	5.07076	3.2375418	251.9687	250.4317	7.144883	33.54825
1757	5.07061	3.2374793	251.7529	250.2173	7.144930	33.54779
1758	5.07061	3.2374167	251.5550	250.0208	7.144959	33.54717
1759	5.07036	3.2373230	251.3514	249.8186	7.145036	33.54644
1760	5.07002	3.2373229	251.1507	249.6192	7.145075	33.54689
1761	5.06977	3.2372916	250.9469	249.4168	7.145118	33.54689
1762	5.06972	3.2372291	250.7402	249.2114	7.145153	33.54632
1763	5.06952	3.2372290	250.5396	249.0122	7.145174	33.54662
1764	5.06942	3.2372602	250.3356	248.8095	7.145164	33.54718
1765	5.06932	3.2372913	250.1378	248.6130	7.145155	33.54774
1766	5.06917	3.2374787	249.9250	248.4017	7.145067	33.55015
1767	5.06957	3.2376661	249.7151	248.1932	7.144911	33.55201
1768	5.06992	3.2376660	249.5083	247.9878	7.144863	33.55177
1769	5.07021	3.2376035	249.2986	247.7795	7.144854	33.55086
1770	5.07036	3.2378784	249.0857	247.5680	7.144682	33.55397
1771	5.07066	3.2378783	248.8726	247.3563	7.144640	33.55378
1772	5.07111	3.2378470	248.6627	247.1479	7.144596	33.55308
1773	5.07131	3.2378781	248.4530	246.9395	7.144549	33.55335
1774	5.07151	3.2379093	248.2403	246.7282	7.144502	33.55361
1775	5.07190	3.2379405	248.0271	246.5165	7.144430	33.55368
1776	5.07190	3.2378467	247.8176	246.3084	7.144476	33.55271
1777	5.07180	3.2377592	247.6135	246.1057	7.144531	33.55191
1778	5.07131	3.2376341	247.4068	245.9003	7.144656	33.55107
1779	5.07096	3.2375091	247.1939	245.6888	7.144762	33.55009
1780	5.07056	3.2375090	246.9811	245.4775	7.144807	33.55060
1781	5.07031	3.2373528	246.7711	245.2689	7.144917	33.54916
1782	5.07002	3.2373215	246.5583	245.0575	7.144966	33.54920
1783	5.06977	3.2371965	246.3516	244.8522	7.145060	33.54812
1784	5.06937	3.2371089	246.1323	244.6344	7.145152	33.54762
1785	5.06907	3.2369839	245.9288	244.4322	7.145252	33.54659
1786	5.06878	3.2368276	245.7220	244.2268	7.145369	33.54520
1787	5.06818	3.2367651	245.5030	244.0092	7.145472	33.54519
1788	5.06788	3.2367963	245.2933	243.8010	7.145488	33.54595
1789	5.06788	3.2368899	245.0833	243.5924	7.145432	33.54713
1790	5.06823	3.2370148	244.8643	243.3749	7.145316	33.54833
1791	5.06878	3.2371397	244.6300	243.1421	7.145174	33.54934
1792	5.06927	3.2372583	244.3988	242.9125	7.145042	33.55032
1793	5.06977	3.2372895	244.1831	242.6982	7.144958	33.55029
1794	5.07026	3.2373519	243.9759	242.4924	7.144857	33.55061
1795	5.07026	3.2374768	243.7693	242.2872	7.144785	33.55215
1796	5.07051	3.2376017	243.5656	242.0847	7.144681	33.55344
1797	5.07081	3.2376329	243.3374	241.8581	7.144622	33.55362
1798	5.07091	3.2376953	243.1398	241.6619	7.144571	33.55433
1799	5.07121	3.2377577	242.9208	241.4443	7.144495	33.55486
1800	5.07151	3.2378139	242.7109	241.2357	7.144422	33.55532
1801	5.07170	3.2377826	242.4919	241.0182	7.144409	33.55487
1802	5.07165	3.2378137	242.2639	240.7918	7.144393	33.55539
1803	5.07190	3.2377824	242.0451	240.5744	7.144373	33.55489
1804	5.07170	3.2377574	241.8168	240.3476	7.144406	33.55492
1805	5.07170	3.2376636	241.5856	240.1180	7.144452	33.55396
1806	5.07151	3.2375698	241.3394	239.8734	7.144521	33.55321
1807	5.07121	3.2374135	241.1112	239.6468	7.144638	33.55182
1808	5.07071	3.2373197	240.8740	239.4111	7.144745	33.55137
1809	5.07026	3.2371947	240.6487	239.1873	7.144863	33.55049
1810	5.06992	3.2370134	240.4299	238.9699	7.144999	33.54887
1811	5.06917	3.2369509	240.1987	238.7403	7.145121	33.54901
1812	5.06878	3.2369508	239.9675	238.5107	7.145165	33.54953
1813	5.06843	3.2368883	239.7424	238.2871	7.145237	33.54927
1814	5.06838	3.2368882	239.5143	238.0604	7.145238	33.54944
1815	5.06823	3.2368881	239.2862	237.8338	7.145251	33.54970
1816	5.06823	3.2368881	239.0611	237.6102	7.145246	33.54981
1817	5.06808	3.2368255	238.8330	237.3836	7.145293	33.54936
1818	5.06808	3.2368567	238.5957	237.1479	7.145271	33.54984
1819	5.06803	3.2368566	238.3766	236.9303	7.145272	33.55000
1820	5.06813	3.2368565	238.1425	236.6977	7.145254	33.55002
1821	5.06828	3.2368565	237.9144	236.4712	7.145230	33.54998
1822	5.06818	3.2368252	237.6895	236.2477	7.145254	33.54984
1823	5.06813	3.2367314	237.4641	236.0239	7.145305	33.54892
1824	5.06808	3.2365189	237.2392	235.8004	7.145421	33.54664
1825	5.06753	3.2364876	237.0143	235.5770	7.145501	33.54695
1826	5.06709	3.2363938	236.7859	235.3502	7.145602	33.54643
1827	5.06704	3.2362063	236.5577	235.1235	7.145704	33.54444
1828	5.06634	3.2360501	236.3329	234.9002	7.145871	33.54346
1829	5.06590	3.2360188	236.1018	234.6706	7.145938	33.54366
1830	5.06550	3.2359875	235.8734	234.4437	7.145999	33.54382
1831	5.06530	3.2359874	235.6514	234.2231	7.146019	33.54413
1832	5.06510	3.2360186	235.4233	233.9966	7.146021	33.54480
1833	5.06485	3.2360185	235.1920	233.7669	7.146047	33.54517
1834	5.06485	3.2360184	234.9578	233.5342	7.146041	33.54529
1835	5.06505	3.2360496	234.7022	233.2802	7.145994	33.54558
1836	5.06510	3.2360495	234.4742	233.0537	7.145982	33.54564
1837	5.06525	3.2359307	234.2399	232.8211	7.146022	33.54424
1838	5.06520	3.2358370	234.0180	232.6006	7.146074	33.54333
1839	5.06481	3.2358369	233.7900	232.3741	7.146118	33.54384
1840	5.06471	3.2358056	233.5616	232.1472	7.146142	33.54370
1841	5.06476	3.2357431	233.3273	231.9144	7.146164	33.54305
1842	5.06466	3.2356493	233.1056	231.6942	7.146222	33.54218
1843	5.06436	3.2356180	232.8773	231.4675	7.146271	33.54224
1844	5.06406	3.2355867	232.6464	231.2380	7.146319	33.54229
1845	5.06406	3.2355554	232.4180	231.0112	7.146331	33.54205
1846	5.06391	3.2354928	232.1866	230.7813	7.146378	33.54160
1847	5.06386	3.2354615	231.9616	230.5578	7.146396	33.54140
1848	5.06371	3.2354302	231.7336	230.3313	7.146426	33.54131
1849	5.06337	3.2354302	231.5021	230.1013	7.146464	33.54177
1850	5.06327	3.2353114	231.2739	229.8747	7.146535	33.54062
1851	5.06297	3.2352801	231.0459	229.6481	7.146584	33.54068
1852	5.06277	3.2352800	230.8208	229.4245	7.146603	33.54099
1853	5.06277	3.2352175	230.5899	229.1951	7.146632	33.54039
1854	5.06272	3.2351237	230.3586	228.9653	7.146683	33.53948
1855	5.06247	3.2350425	230.1305	228.7388	7.146753	33.53891
1856	5.06222	3.2349674	229.9025	228.5123	7.146819	33.53841
1857	5.06193	3.2349049	229.6650	228.2764	7.146885	33.53811
1858	5.06153	3.2348174	229.4431	228.0559	7.146976	33.53761
1859	5.06113	3.2348173	229.2150	227.8294	7.147021	33.53813
1860	5.06103	3.2347236	228.9808	227.5967	7.147078	33.53727
1861	5.06088	3.2346923	228.7496	227.3670	7.147109	33.53718
1862	5.06074	3.2346297	228.5242	227.1431	7.147156	33.53672
1863	5.06049	3.2345047	228.2932	226.9136	7.147249	33.53565
1864	5.06019	3.2344734	228.0592	226.6812	7.147298	33.53571
1865	5.05999	3.2343172	227.8311	226.4545	7.147401	33.53423
1866	5.05945	3.2342547	227.6026	226.2276	7.147498	33.53417
1867	5.05920	3.2341672	227.3714	225.9979	7.147571	33.53353
1868	5.05880	3.2340110	227.1405	225.7685	7.147700	33.53225
1869	5.05845	3.2339797	226.9061	225.5357	7.147755	33.53236
1870	5.05816	3.2338859	226.6781	225.3092	7.147838	33.53170
1871	5.05791	3.2338859	226.4439	225.0765	7.147863	33.53206
1872	5.05761	3.2337921	226.2005	224.8347	7.147945	33.53141
1873	5.05746	3.2338857	225.9661	224.6018	7.147908	33.53275
1874	5.05751	3.2339481	225.7199	224.3572	7.147862	33.53354
1875	5.05766	3.2339480	225.4795	224.1184	7.147838	33.53352
1876	5.05801	3.2339479	225.2486	223.8891	7.147789	33.53328
1877	5.05801	3.2339791	225.0171	223.6591	7.147766	33.53376
1878	5.05806	3.2340103	224.7677	223.4113	7.147737	33.53419
1879	5.05806	3.2339790	224.5153	223.1605	7.147748	33.53396
1880	5.05821	3.2339476	224.2779	222.9247	7.147741	33.53357
1881	5.05825	3.2339476	224.0497	222.6981	7.147729	33.53364
1882	5.05806	3.2339475	223.8126	222.4625	7.147748	33.53396
1883	5.05811	3.2339162	223.5813	222.2327	7.147754	33.53366
1884	5.05816	3.2339161	223.3471	222.0000	7.147742	33.53373
1885	5.05821	3.2339161	223.1099	221.7644	7.147730	33.53380
1886	5.05816	3.2339472	222.8724	221.5285	7.147714	33.53433
1887	5.05821	3.2338847	222.6444	221.3019	7.147736	33.53368
1888	5.05821	3.2337597	222.4071	221.0662	7.147798	33.53236
1889	5.05791	3.2336972	222.1791	220.8397	7.147863	33.53206
1890	5.05761	3.2336971	221.9355	220.5977	7.147895	33.53248
1891	5.05746	3.2336408	221.6984	220.3622	7.147938	33.53210
1892	5.05741	3.2335783	221.4640	220.1293	7.147973	33.53155
1893	5.05726	3.2335470	221.2302	219.8970	7.148003	33.53146
1894	5.05716	3.2335157	220.9894	219.6578	7.148027	33.53132
1895	5.05701	3.2334220	220.7583	219.4283	7.148090	33.53051
1896	5.05667	3.2333907	220.5272	219.1986	7.148145	33.53062
1897	5.05657	3.2333594	220.2898	218.9628	7.148169	33.53048
1898	5.05647	3.2332344	220.0555	218.7301	7.148244	33.52926
1899	5.05602	3.2331157	219.8183	218.4944	7.148358	33.52846
1900	5.05582	3.2329595	219.5841	218.2618	7.148462	33.52698
1901	5.05543	3.2328970	219.3348	218.0141	7.148540	33.52679
1902	5.05503	3.2328032	219.1065	217.7873	7.148635	33.52623
1903	5.05468	3.2326782	218.8662	217.5486	7.148740	33.52526
1904	5.05434	3.2325845	218.6321	217.3160	7.148829	33.52465
1905	5.05379	3.2323721	218.3947	217.0801	7.149007	33.52287
1906	5.05334	3.2322784	218.1604	216.8473	7.149108	33.52236
1907	5.05270	3.2322471	217.9232	216.6117	7.149200	33.52277
1908	5.05250	3.2322158	217.6892	216.3792	7.149236	33.52273
1909	5.05230	3.2321845	217.4545	216.1461	7.149273	33.52269
1910	5.05210	3.2321532	217.2142	215.9073	7.149309	33.52265
1911	5.05205	3.2321219	216.9740	215.6687	7.149326	33.52246
1912	5.05176	3.2321531	216.7368	215.4331	7.149341	33.52324
1913	5.05185	3.2321218	216.4997	215.1975	7.149340	33.52290
1914	5.05200	3.2320905	216.2651	214.9644	7.149333	33.52251
1915	5.05200	3.2320592	216.0278	214.7287	7.149344	33.52227
1916	5.05190	3.2320591	215.7996	214.5019	7.149351	33.52248
1917	5.05195	3.2318155	215.5593	214.2633	7.149471	33.51976
1918	5.05161	3.2315657	215.3189	214.0244	7.149644	33.51735
1919	5.05091	3.2314158	215.0849	213.7919	7.149807	33.51644
1920	5.05022	3.2311348	214.8444	213.5530	7.150040	33.51403
1921	5.04942	3.2308038	214.6010	213.3112	7.150313	33.51115
1922	5.04833	3.2305790	214.3487	213.0606	7.150566	33.50978
1923	5.04749	3.2303042	214.1174	212.8308	7.150815	33.50759
1924	5.04645	3.2301481	213.8830	212.5978	7.151025	33.50696
1925	5.04560	3.2299607	213.6520	212.3684	7.151227	33.50576
1926	5.04496	3.2299919	213.4118	212.1297	7.151285	33.50689
1927	5.04466	3.2299606	213.1714	211.8910	7.151334	33.50695
1928	5.04426	3.2299605	212.9341	211.6551	7.151378	33.50747
1929	5.04426	3.2301165	212.6907	211.4134	7.151287	33.50939
1930	5.04446	3.2303037	212.4562	211.1804	7.151155	33.51146
1931	5.04481	3.2304535	212.2253	210.9510	7.151025	33.51295
1932	5.04536	3.2306095	211.9909	210.7181	7.150867	33.51432
1933	5.04590	3.2306406	211.7478	210.4766	7.150775	33.51425
1934	5.04640	3.2307342	211.5104	210.2407	7.150657	33.51495
1935	5.04679	3.2308590	211.2609	209.9929	7.150533	33.51611
1936	5.04714	3.2309526	211.0234	209.7569	7.150434	33.51696
1937	5.04769	3.2309774	210.7768	209.5119	7.150346	33.51683
1938	5.04789	3.2309524	210.5337	209.2705	7.150329	33.51646
1939	5.04794	3.2307962	210.2871	209.0254	7.150401	33.51474
1940	5.04764	3.2303966	210.0379	208.7778	7.150649	33.51057
1941	5.04709	3.2303653	209.7974	208.5389	7.150728	33.51088
1942	5.04660	3.2301155	209.5633	208.3063	7.150920	33.50862
1943	5.04580	3.2298096	209.3047	208.0494	7.151180	33.50603
1944	5.04506	3.2295598	209.0462	207.7926	7.151402	33.50404
1945	5.04417	3.2292539	208.7906	207.5386	7.151674	33.50154
1946	5.04322	3.2290353	208.5440	207.2936	7.151905	33.50010
1947	5.04223	3.2288543	208.3008	207.0520	7.152122	33.49914
1948	5.04159	3.2287918	208.0481	206.8010	7.152230	33.49919
1949	5.04109	3.2287293	207.7987	206.5532	7.152321	33.49910
1950	5.04084	3.2286356	207.5493	206.3054	7.152396	33.49840
1951	5.04049	3.2285731	207.2997	206.0574	7.152468	33.49815
1952	5.04000	3.2284794	207.0565	205.8158	7.152575	33.49770
1953	5.03960	3.2284793	206.8130	205.5739	7.152619	33.49822
1954	5.03930	3.2284792	206.5606	205.3231	7.152651	33.49864
1955	5.03935	3.2285104	206.3170	205.0811	7.152622	33.49908
1956	5.03935	3.2286039	206.0738	204.8395	7.152565	33.50028
1957	5.03945	3.2285102	205.8271	204.5944	7.152598	33.49922
1958	5.03950	3.2284477	205.5808	204.3497	7.152619	33.49858
1959	5.03930	3.2284165	205.3343	204.1047	7.152655	33.49854
1960	5.03921	3.2284476	205.0880	203.8600	7.152645	33.49913
1961	5.03916	3.2283913	204.8385	203.6122	7.152676	33.49866
1962	5.03906	3.2283600	204.5796	203.3550	7.152699	33.49853
1963	5.03901	3.2283288	204.3181	203.0951	7.152716	33.49835
1964	5.03901	3.2283599	204.0626	202.8413	7.152693	33.49884
1965	5.03906	3.2283286	203.8255	202.6057	7.152698	33.49855
1966	5.03896	3.2282973	203.5818	202.3636	7.152722	33.49841
1967	5.03871	3.2282973	203.3386	202.1220	7.152747	33.49878
1968	5.03881	3.2282348	203.0890	201.8740	7.152762	33.49809
1969	5.03886	3.2280787	202.8424	201.6290	7.152835	33.49637
1970	5.03851	3.2279538	202.5933	201.3815	7.152940	33.49541
1971	5.03806	3.2278351	202.3435	201.1333	7.153055	33.49462
1972	5.03772	3.2277414	202.1002	200.8916	7.153143	33.49401
1973	5.03737	3.2276789	201.8570	200.6500	7.153215	33.49377
1974	5.03707	3.2276164	201.5951	200.3898	7.153280	33.49348
1975	5.03697	3.2275852	201.3488	200.1450	7.153303	33.49334
1976	5.03682	3.2275539	201.1055	199.9034	7.153333	33.49326
1977	5.03668	3.2274914	200.8653	199.6647	7.153380	33.49281
1978	5.03643	3.2274601	200.6156	199.4166	7.153422	33.49283
1979	5.03638	3.2274039	200.3660	199.1687	7.153453	33.49235
1980	5.03613	3.2273414	200.1168	198.9210	7.153512	33.49201
1981	5.03583	3.2272165	199.8732	198.6790	7.153611	33.49100
1982	5.03563	3.2271852	199.6299	198.4373	7.153647	33.49096
1983	5.03534	3.2271228	199.3713	198.1804	7.153712	33.49067
1984	5.03519	3.2270603	199.1249	197.9356	7.153759	33.49023
1985	5.03504	3.2270290	198.8811	197.6933	7.153789	33.49014
1986	5.03479	3.2269665	198.6289	197.4428	7.153848	33.48980
1987	5.03459	3.2269665	198.3762	197.1917	7.153867	33.49012
1988	5.03444	3.2268478	198.1300	196.9470	7.153944	33.48903
1989	5.03430	3.2268477	197.8867	196.7053	7.153957	33.48931
1990	5.03405	3.2268477	197.6338	196.4540	7.153982	33.48968
1991	5.03420	3.2268164	197.3937	196.2155	7.153974	33.48929
1992	5.03425	3.2267539	197.1473	195.9706	7.153996	33.48865
1993	5.03405	3.2266602	196.9007	195.7257	7.154066	33.48790
1994	5.03390	3.2266602	196.6480	195.4746	7.154078	33.48817
1995	5.03380	3.2265977	196.3989	195.2271	7.154119	33.48768
1996	5.03365	3.2265352	196.1526	194.9823	7.154165	33.48724
1997	5.03340	3.2264727	195.9059	194.7373	7.154225	33.48689
1998	5.03320	3.2264726	195.6597	194.4927	7.154244	33.48722
1999	5.03310	3.2264414	195.4038	194.2384	7.154267	33.48709
2000	5.03306	3.2264163	195.1574	193.9936	7.154281	33.48697
2001	5.03306	3.2263539	194.9110	193.7488	7.154309	33.48638
2002	5.03291	3.2263538	194.6674	193.5067	7.154322	33.48665
2003	5.03296	3.2263537	194.4181	193.2591	7.154310	33.48673
2004	5.03301	3.2263536	194.1502	192.9929	7.154297	33.48681
2005	5.03286	3.2263223	193.8856	192.7300	7.154326	33.48674
2006	5.03281	3.2263847	193.6270	192.4731	7.154293	33.48763
2007	5.03310	3.2263846	193.3776	192.2252	7.154249	33.48746
2008	5.03330	3.2263221	193.1430	191.9921	7.154253	33.48666
2009	5.03330	3.2262596	192.8940	191.7447	7.154280	33.48607
2010	5.03310	3.2262908	192.6383	191.4907	7.154282	33.48676
2011	5.03306	3.2263219	192.3888	191.2428	7.154266	33.48729
2012	5.03345	3.2263218	192.1362	190.9918	7.154210	33.48702
2013	5.03340	3.2263217	191.8959	190.7530	7.154210	33.48719
2014	5.03360	3.2263216	191.6525	190.5112	7.154180	33.48712
2015	5.03335	3.2263216	191.4029	190.2632	7.154205	33.48749
2016	5.03345	3.2263215	191.1534	190.0153	7.154187	33.48752
2017	5.03330	3.2263214	190.9161	189.7796	7.154200	33.48779
2018	5.03325	3.2263213	190.6575	189.5226	7.154200	33.48797
2019	5.03315	3.2262901	190.4172	189.2838	7.154223	33.48783
2020	5.03310	3.2262900	190.1614	189.0297	7.154223	33.48801
2021	5.03301	3.2262899	189.9060	188.7759	7.154230	33.48824
2022	5.03286	3.2262898	189.6658	188.5372	7.154243	33.48851
2023	5.03291	3.2262586	189.4192	188.2922	7.154248	33.48822
2024	5.03291	3.2261961	189.1758	188.0504	7.154276	33.48763
2025	5.03281	3.2261960	188.9357	187.8118	7.154282	33.48785
2026	5.03276	3.2261959	188.6889	187.5666	7.154283	33.48802
2027	5.03271	3.2261397	188.4457	187.3249	7.154314	33.48755
2028	5.03256	3.2259212	188.1993	187.0801	7.154445	33.48531
2029	5.03231	3.2257964	187.9465	186.8290	7.154538	33.48425
2030	5.03187	3.2257027	187.6972	186.5812	7.154639	33.48375
2031	5.03142	3.2255779	187.4599	186.3454	7.154757	33.48288
2032	5.03087	3.2254842	187.2163	186.1034	7.154870	33.48247
2033	5.03043	3.2253032	186.9669	185.8556	7.155019	33.48096
2034	5.02993	3.2249974	186.7144	185.6047	7.155241	33.47807
2035	5.02924	3.2248102	186.4708	185.3627	7.155424	33.47674
2036	5.02864	3.2245606	186.2335	185.1269	7.155628	33.47458
2037	5.02785	3.2240988	185.9871	184.8821	7.155972	33.47019
2038	5.02661	3.2238555	185.7437	184.6402	7.156254	33.46875
2039	5.02562	3.2234562	185.4912	184.3893	7.156590	33.46528
2040	5.02433	3.2230257	185.2418	184.1416	7.156979	33.46175
2041	5.02304	3.2228074	185.0012	183.9024	7.157254	33.46065
2042	5.02180	3.2225329	184.7519	183.6548	7.157553	33.45886
2043	5.02081	3.2221960	184.5025	183.4070	7.157854	33.45610
2044	5.01967	3.2219776	184.2557	183.1617	7.158110	33.45486
2045	5.01863	3.2218840	184.0004	182.9081	7.158286	33.45495
2046	5.01788	3.2217904	183.7540	182.6632	7.158425	33.45475
2047	5.01739	3.2216718	183.4953	182.4062	7.158545	33.45401
2048	5.01689	3.2215470	183.2336	182.1462	7.158669	33.45320
2049	5.01630	3.2214846	182.9627	181.8769	7.158771	33.45322
2050	5.01585	3.2211166	182.7043	181.6202	7.159021	33.44956
2051	5.01521	3.2206862	182.4698	181.3872	7.159330	33.44537
2052	5.01402	3.2203245	182.2292	181.1482	7.159670	33.44252
2053	5.01273	3.2200376	181.9952	180.9156	7.159983	33.44063
2054	5.01149	3.2199814	181.7364	180.6585	7.160163	33.44136
2055	5.01075	3.2197631	181.4475	180.3715	7.160368	33.43974
2056	5.01000	3.2194887	181.1401	180.0660	7.160603	33.43748
2057	5.00921	3.2192081	180.8542	179.7819	7.160849	33.43519
2058	5.00832	3.2189960	180.6075	179.5368	7.161070	33.43377
2059	5.00747	3.2189024	180.3703	179.3011	7.161222	33.43365
2060	5.00673	3.2186281	180.1240	179.0563	7.161458	33.43137
2061	5.00564	3.2186903	179.8834	178.8173	7.161556	33.43330
2062	5.00544	3.2186591	179.6278	178.5633	7.161592	33.43327
2063	5.00519	3.2185343	179.3786	178.3157	7.161685	33.43220
2064	5.00475	3.2185031	179.1378	178.0764	7.161752	33.43241
2065	5.00460	3.2183783	178.8915	177.8317	7.161833	33.43125
2066	5.00430	3.2182910	178.6390	177.5808	7.161912	33.43067
2067	5.00396	3.2182597	178.3985	177.3418	7.161966	33.43078
2068	5.00386	3.2181973	178.1522	177.0971	7.162007	33.43029
2069	5.00361	3.2180102	177.8936	176.8401	7.162134	33.42851
2070	5.00326	3.2178606	177.6410	176.5891	7.162252	33.42727
2071	5.00272	3.2176111	177.3945	176.3442	7.162451	33.42507
2072	5.00197	3.2175674	177.1480	176.0992	7.162562	33.42543
2073	5.00148	3.2174302	176.9017	175.8545	7.162693	33.42448
2074	5.00103	3.2173367	176.6613	175.6157	7.162794	33.42397
2075	5.00078	3.2171496	176.4118	175.3678	7.162921	33.42219
2076	5.00029	3.2169376	176.1591	175.1166	7.163093	33.42037
2077	4.99930	3.2166882	175.9096	174.8687	7.163347	33.41862
2078	4.99870	3.2165386	175.6663	174.6270	7.163498	33.41762
2079	4.99806	3.2164450	175.4169	174.3791	7.163624	33.41731
2080	4.99761	3.2162330	175.1704	174.1342	7.163789	33.41544
2081	4.99722	3.2158029	174.9239	173.8892	7.164067	33.41101
2082	4.99608	3.2155847	174.6834	173.6503	7.164323	33.40976
2083	4.99518	3.2154039	174.4310	173.3995	7.164528	33.40870
2084	4.99424	3.2151546	174.1843	173.1543	7.164776	33.40690
2085	4.99345	3.2150361	173.9381	172.9097	7.164935	33.40645
2086	4.99291	3.2148491	173.7007	172.6738	7.165099	33.40497
2087	4.99221	3.2146933	173.4449	172.4196	7.165265	33.40400
2088	4.99152	3.2145748	173.2015	172.1777	7.165411	33.40345
2089	4.99102	3.2144564	172.9553	171.9332	7.165532	33.40271
2090	4.99068	3.2143254	172.6904	171.6699	7.165641	33.40168
2091	4.99013	3.2141446	172.4226	171.4038	7.165802	33.40028
2092	4.98968	3.2140200	172.1730	171.1558	7.165920	33.39942
2093	4.98929	3.2139264	171.9296	170.9139	7.166015	33.39886
2094	4.98884	3.2137457	171.6773	170.6632	7.166163	33.39735
2095	4.98835	3.2136210	171.4370	170.4245	7.166288	33.39654
2096	4.98775	3.2135275	171.1873	170.1762	7.166407	33.39618
2097	4.98746	3.2134402	170.9378	169.9283	7.166486	33.39560
2098	4.98696	3.2133466	170.6945	169.6866	7.166594	33.39514
2099	4.98646	3.2132220	170.4451	169.4388	7.166718	33.39433
2100	4.98592	3.2130412	170.1892	169.1845	7.166879	33.39292
2101	4.98542	3.2129165	169.9428	168.9396	7.167003	33.39211
2102	4.98488	3.2128542	169.6903	168.6887	7.167100	33.39207
2103	4.98443	3.2126423	169.4437	168.4437	7.167266	33.39020
2104	4.98394	3.2124553	169.1942	168.1958	7.167424	33.38867
2105	4.98329	3.2122870	168.9386	167.9417	7.167590	33.38750
2106	4.98265	3.2120253	168.6889	167.6936	7.167808	33.38526
2107	4.98171	3.2118135	168.4397	167.4460	7.168036	33.38389
2108	4.98087	3.2116265	168.1961	167.2040	7.168238	33.38270
2109	4.98012	3.2113524	167.9468	166.9563	7.168475	33.38041
2110	4.97928	3.2111966	167.7001	166.7111	7.168660	33.37959
2111	4.97844	3.2110782	167.4537	166.4663	7.168825	33.37919
2112	4.97780	3.2109536	167.2102	166.2243	7.168968	33.37852
2113	4.97735	3.2106794	166.9548	165.9704	7.169167	33.37594
2114	4.97646	3.2103742	166.7172	165.7344	7.169440	33.37344
2115	4.97542	3.2102496	166.4681	165.4868	7.169634	33.37317
2116	4.97478	3.2100938	166.2244	165.2446	7.169794	33.37214
2117	4.97413	3.2099754	165.9779	164.9998	7.169934	33.37155
2118	4.97354	3.2098508	165.7345	164.7579	7.170071	33.37083
2119	4.97304	3.2095393	165.4821	164.5071	7.170297	33.36787
2120	4.97210	3.2093275	165.2413	164.2678	7.170525	33.36649
2121	4.97141	3.2091469	164.9920	164.0201	7.170705	33.36523
2122	4.97081	3.2089039	164.7488	163.7783	7.170906	33.36315
2123	4.97007	3.2086548	164.4990	163.5301	7.171130	33.36115
2124	4.96903	3.2083496	164.2435	163.2762	7.171421	33.35880
2125	4.96804	3.2079511	163.9877	163.0221	7.171757	33.35533
2126	4.96675	3.2074342	163.7444	162.7803	7.172195	33.35079
2127	4.96527	3.2072163	163.5010	162.5384	7.172496	33.34988
2128	4.96393	3.2069734	163.2515	162.2905	7.172791	33.34855
2129	4.96294	3.2067305	162.9991	162.0397	7.173042	33.34687
2130	4.96185	3.2062076	162.7495	161.7916	7.173459	33.34206
2131	4.96047	3.2059647	162.5029	161.5465	7.173760	33.34077
2132	4.95918	3.2057281	162.2381	161.2834	7.174046	33.33947
2133	4.95804	3.2054106	161.9794	161.0264	7.174356	33.33708
2134	4.95680	3.2048006	161.7360	160.7845	7.174839	33.33141
2135	4.95532	3.2043711	161.4955	160.5455	7.175255	33.32807
2136	4.95353	3.2038234	161.2460	160.2975	7.175773	33.32366
2137	4.95165	3.2034873	161.0025	160.0556	7.176189	33.32179
2138	4.95022	3.2031200	160.7563	159.8110	7.176564	33.31912
2139	4.94898	3.2029706	160.5068	159.5629	7.176796	33.31876
2140	4.94779	3.2026906	160.2663	159.3240	7.177094	33.31684
2141	4.94685	3.2022674	160.0138	159.0730	7.177437	33.31303
2142	4.94576	3.2019002	159.7733	158.8341	7.177769	33.31001
2143	4.94438	3.2015020	159.5270	158.5893	7.178156	33.30693
2144	4.94314	3.2011038	159.2804	158.3443	7.178524	33.30370
2145	4.94156	3.2004940	159.0341	158.0995	7.179051	33.29838
2146	4.93978	3.2002825	158.7844	157.8514	7.179386	33.29785
2147	4.93839	3.2001269	158.5348	157.6033	7.179640	33.29757
2148	4.93735	3.1999464	158.2852	157.3553	7.179864	33.29665
2149	4.93661	3.1995483	158.0388	157.1105	7.180170	33.29293
2150	4.93567	3.1993678	157.7896	156.8628	7.180381	33.29191
2151	4.93473	3.1991190	157.5457	156.6205	7.180630	33.29011
2152	4.93379	3.1986649	157.2934	156.3697	7.180991	33.28594
2153	4.93260	3.1982170	157.0470	156.1248	7.181380	33.28208
2154	4.93131	3.1978687	156.7973	155.8767	7.181727	33.27948
2155	4.93008	3.1975017	156.5540	155.6349	7.182078	33.27661
2156	4.92894	3.1972592	156.3135	155.3959	7.182349	33.27507
2157	4.92785	3.1968922	156.0609	155.1449	7.182681	33.27205
2158	4.92691	3.1965564	155.8235	154.9089	7.182978	33.26924
2159	4.92572	3.1963138	155.5619	154.6490	7.183255	33.26776
2160	4.92459	3.1960713	155.3214	154.4101	7.183526	33.26622
2161	4.92380	3.1958909	155.0749	154.1650	7.183718	33.26506
2162	4.92300	3.1955240	154.8223	153.9141	7.184013	33.26174
2163	4.92187	3.1952877	154.5851	153.6783	7.184281	33.26027
2164	4.92078	3.1951882	154.3386	153.4333	7.184467	33.26034
2165	4.92013	3.1950949	154.0892	153.1855	7.184594	33.26003
2166	4.91949	3.1948213	153.8457	152.9435	7.184819	33.25764
2167	4.91885	3.1946098	153.5962	152.6956	7.185010	33.25597
2168	4.91806	3.1944855	153.3527	152.4536	7.185172	33.25545
2169	4.91746	3.1942119	153.1061	152.2086	7.185391	33.25301
2170	4.91672	3.1940626	152.8564	151.9604	7.185561	33.25216
2171	4.91608	3.1939072	152.6069	151.7125	7.185721	33.25113
2172	4.91558	3.1937082	152.3545	151.4616	7.185887	33.24946
2173	4.91499	3.1936646	152.1048	151.2135	7.185980	33.24968
2174	4.91460	3.1936024	151.8466	150.9569	7.186058	33.24949
2175	4.91415	3.1935401	151.5905	150.7024	7.186142	33.24934
2176	4.91385	3.1935711	151.3472	150.4606	7.186157	33.25012
2177	4.91366	3.1935711	151.1097	150.2245	7.186176	33.25044
2178	4.91366	3.1935710	150.8572	149.9737	7.186170	33.25057
2179	4.91366	3.1935709	150.6109	149.7289	7.186164	33.25069
2180	4.91371	3.1936019	150.3582	149.4778	7.186135	33.25113
2181	4.91380	3.1935832	150.1148	149.2359	7.186127	33.25094
2182	4.91390	3.1935707	149.8714	148.9940	7.186115	33.25082
2183	4.91405	3.1935085	149.6217	148.7459	7.186124	33.25008
2184	4.91375	3.1934773	149.3693	148.4950	7.186173	33.25014
2185	4.91366	3.1934524	149.1226	148.2499	7.186193	33.25008
2186	4.91366	3.1934212	148.8792	148.0080	7.186204	33.24984
2187	4.91366	3.1933590	148.6265	147.7568	7.186232	33.24926
2188	4.91351	3.1933278	148.3772	147.5090	7.186262	33.24917
2189	4.91351	3.1932345	148.1339	147.2672	7.186307	33.24822
2190	4.91321	3.1931972	147.8873	147.0222	7.186359	33.24821
2191	4.91291	3.1931163	147.6406	146.7770	7.186435	33.24770
2192	4.91282	3.1930851	147.3942	146.5322	7.186459	33.24756
2193	4.91272	3.1931161	147.1447	146.2842	7.186448	33.24815
2194	4.91232	3.1930228	146.8982	146.0392	7.186544	33.24759
2195	4.91237	3.1928425	146.6455	145.7881	7.186630	33.24559
2196	4.91217	3.1927803	146.3963	145.5405	7.186683	33.24519
2197	4.91178	3.1926559	146.1556	145.3012	7.186795	33.24428
2198	4.91143	3.1925191	145.9093	145.0565	7.186908	33.24317
2199	4.91099	3.1922332	145.6474	144.7962	7.187115	33.24045
2200	4.91054	3.1922642	145.4040	144.5543	7.187148	33.24137
2201	4.91029	3.1921398	145.1575	144.3093	7.187242	33.24031
2202	4.90985	3.1921087	144.9202	144.0734	7.187309	33.24052
2203	4.90955	3.1920465	144.6615	143.8164	7.187375	33.24023
2204	4.90935	3.1919283	144.4180	143.5744	7.187459	33.23919
2205	4.90906	3.1917418	144.1655	143.3234	7.187592	33.23746
2206	4.90856	3.1913192	143.9220	143.0814	7.187880	33.23320
2207	4.90767	3.1905921	143.6725	142.8335	7.188385	33.22582
2208	4.90604	3.1897036	143.4262	142.5887	7.189072	33.21733
2209	4.90386	3.1893991	143.1767	142.3408	7.189508	33.21611
2210	4.90194	3.1887033	142.9298	142.0954	7.190128	33.21013
2211	4.90011	3.1883989	142.6834	141.8505	7.190521	33.20857
2212	4.89848	3.1876099	142.4371	141.6058	7.191154	33.20122
2213	4.89660	3.1870944	142.1874	141.3576	7.191669	33.19727
2214	4.89477	3.1868459	141.9442	141.1159	7.192031	33.19635
2215	4.89329	3.1860385	141.6732	140.8466	7.192655	33.18864
2216	4.89101	3.1852374	141.3994	140.5744	7.193376	33.18181
2217	4.88879	3.1847840	141.1500	140.3266	7.193901	33.17892
2218	4.88671	3.1839644	140.9095	140.0876	7.194608	33.17165
2219	4.88429	3.1828097	140.6628	139.8424	7.195542	33.16086
2220	4.88113	3.1820834	140.4013	139.5825	7.196336	33.15576
2221	4.87816	3.1815682	140.1576	139.3404	7.196990	33.15289
2222	4.87594	3.1808482	139.9081	139.0924	7.197662	33.14692
2223	4.87342	3.1803579	139.6617	138.8475	7.198245	33.14389
2224	4.87119	3.1798428	139.4089	138.5963	7.198804	33.14029
2225	4.86937	3.1793587	139.1655	138.3544	7.199297	33.13665
2226	4.86744	3.1786265	138.9130	138.1034	7.199937	33.13024
2227	4.86546	3.1782045	138.6666	137.8585	7.200415	33.12746
2228	4.86354	3.1778136	138.4139	137.6073	7.200868	33.12499
2229	4.86191	3.1773607	138.1736	137.3685	7.201319	33.12151
2230	4.86052	3.1769326	137.9177	137.1142	7.201724	33.11807
2231	4.85884	3.1760269	137.6684	136.8665	7.202428	33.10941
2232	4.85652	3.1752702	137.4219	136.6214	7.203134	33.10311
2233	4.85405	3.1748174	137.1691	136.3702	7.203691	33.10046
2234	4.85198	3.1745135	136.9290	136.1316	7.204117	33.09914
2235	4.85015	3.1742034	136.6731	135.8773	7.204514	33.09750
2236	4.84892	3.1736638	136.4297	135.6354	7.204961	33.09262
2237	4.84734	3.1734219	136.1771	135.3843	7.205290	33.09153
2238	4.84605	3.1731490	135.9278	135.1365	7.205597	33.08978
2239	4.84482	3.1728204	135.6782	134.8885	7.205929	33.08734
2240	4.84354	3.1725165	135.4315	134.6433	7.206254	33.08523
2241	4.84245	3.1724792	135.1791	134.3924	7.206407	33.08601
2242	4.84156	3.1726404	134.9323	134.1472	7.206426	33.08888
2243	4.84141	3.1726961	134.6829	133.8993	7.206408	33.08980
2244	4.84151	3.1728510	134.4303	133.6483	7.206305	33.09162
2245	4.84176	3.1729687	134.1898	133.4092	7.206203	33.09286
2246	4.84191	3.1729997	133.9372	133.1582	7.206161	33.09320
2247	4.84230	3.1731484	133.6908	132.9133	7.206023	33.09465
2248	4.84255	3.1732723	133.4443	132.6683	7.205917	33.09596
2249	4.84309	3.1733343	133.2038	132.4293	7.205808	33.09626
2250	4.84344	3.1733900	132.9544	132.1814	7.205727	33.09668
2251	4.84363	3.1734209	132.7109	131.9394	7.205679	33.09697
2252	4.84388	3.1733898	132.4675	131.6975	7.205659	33.09649
2253	4.84403	3.1733029	132.2210	131.4525	7.205682	33.09546
2254	4.84403	3.1733091	131.9683	131.2013	7.205672	33.09566
2255	4.84393	3.1733648	131.7218	130.9564	7.205648	33.09653
2256	4.84408	3.1733895	131.4600	130.6962	7.205609	33.09680
2257	4.84413	3.1733646	131.1925	130.4303	7.205610	33.09660
2258	4.84413	3.1733336	130.9398	130.1792	7.205621	33.09637
2259	4.84413	3.1732405	130.6994	129.9403	7.205667	33.09541
2260	4.84398	3.1731164	130.4469	129.6893	7.205748	33.09426
2261	4.84363	3.1731783	130.1972	129.4411	7.205752	33.09544
2262	4.84373	3.1731782	129.9477	129.1931	7.205733	33.09547
2263	4.84398	3.1731472	129.6981	128.9450	7.205713	33.09499
2264	4.84378	3.1730603	129.4546	128.7031	7.205780	33.09431
2265	4.84354	3.1729672	129.2021	128.4521	7.205856	33.09361
2266	4.84334	3.1728617	128.9556	128.2071	7.205933	33.09271
2267	4.84304	3.1726633	128.7060	127.9591	7.206074	33.09084
2268	4.84270	3.1724524	128.4654	127.7200	7.206228	33.08887
2269	4.84201	3.1723035	128.2098	127.4659	7.206392	33.08797
2270	4.84146	3.1721237	127.9635	127.2211	7.206554	33.08656
2271	4.84087	3.1720616	127.7076	126.9667	7.206658	33.08656
2272	4.84028	3.1719995	127.4673	126.7279	7.206761	33.08655
2273	4.83998	3.1718507	127.2116	126.4738	7.206875	33.08526
2274	4.83959	3.1718196	126.9652	126.2289	7.206936	33.08542
2275	4.83929	3.1717265	126.7125	125.9777	7.207019	33.08477
2276	4.83909	3.1711561	126.4660	125.7327	7.207352	33.07850
2277	4.83880	3.1714846	126.2165	125.4848	7.207203	33.08271
2278	4.83835	3.1712304	125.9728	125.2425	7.207394	33.08034
2279	4.83781	3.1707034	125.7234	124.9946	7.207746	33.07492
2280	4.83677	3.1702757	125.4710	124.7438	7.208108	33.07114
2281	4.83544	3.1700959	125.2184	124.4927	7.208371	33.07051
2282	4.83470	3.1700090	124.9748	124.2506	7.208507	33.07037
2283	4.83401	3.1699160	124.7222	123.9996	7.208640	33.07011
2284	4.83351	3.1700523	124.4697	123.7486	7.208622	33.07231
2285	4.83332	3.1696741	124.2139	123.4943	7.208849	33.06826
2286	4.83258	3.1685895	123.9738	123.2557	7.209534	33.05659
2287	4.83095	3.1683788	123.7242	123.0076	7.209852	33.05590
2288	4.82927	3.1673811	123.4776	122.7625	7.210609	33.04616
2289	4.82715	3.1663835	123.2220	122.5085	7.211422	33.03687
2290	4.82438	3.1656277	122.9755	122.2635	7.212185	33.03101
2291	4.82187	3.1645188	122.7167	122.0062	7.213110	33.02083
2292	4.81890	3.1637941	122.4671	121.7582	7.213882	33.01552
2293	4.81609	3.1620787	122.2207	121.5133	7.215179	32.99861
2294	4.81205	3.1595464	121.9712	121.2653	7.217085	32.97349
2295	4.80667	3.1580918	121.7248	121.0204	7.218568	32.96213
2296	4.80149	3.1570212	121.4689	120.7661	7.219816	32.95502
2297	4.79710	3.1548307	121.2224	120.5210	7.221579	32.93418
2298	4.79207	3.1521585	120.9576	120.2579	7.223690	32.90840
2299	4.78561	3.1491903	120.6989	120.0007	7.226149	32.88061
2300	4.77870	3.1471689	120.4525	119.7558	7.228145	32.86420
2301	4.77235	3.1442767	120.2029	119.5077	7.230552	32.83717
2302	4.76554	3.1430534	119.9595	119.2658	7.232097	32.82987
2303	4.76017	3.1418858	119.7038	119.0116	7.233427	32.82180
2304	4.75583	3.1410087	119.4604	118.7698	7.234464	32.81607
2305	4.75243	3.1401811	119.2166	118.5275	7.235353	32.80998
2306	4.74958	3.1397981	118.9641	118.2764	7.235927	32.80850
2307	4.74731	3.1393781	118.7147	118.0286	7.236445	32.80601
2308	4.74568	3.1389891	118.4743	117.7896	7.236864	32.80323
2309	4.74445	3.1387235	118.2154	117.5323	7.237163	32.80151
2310	4.74332	3.1384826	117.9690	117.2874	7.237437	32.79997
2311	4.74229	3.1379454	117.7165	117.0364	7.237861	32.79490
2312	4.74130	3.1366612	117.4698	116.7912	7.238692	32.78114
2313	4.73967	3.1347539	117.2143	116.5373	7.239950	32.76080
2314	4.73721	3.1336183	116.9680	116.2925	7.240890	32.75022
2315	4.73495	3.1326927	116.7153	116.0413	7.241688	32.74187
2316	4.73263	3.1307739	116.4686	115.7961	7.243042	32.72208
2317	4.72992	3.1291825	116.2222	115.5512	7.244267	32.70646
2318	4.72687	3.1274557	115.9634	115.2939	7.245610	32.68961
2319	4.72377	3.1269192	115.7169	115.0490	7.246303	32.68659
2320	4.72145	3.1261300	115.4733	114.8068	7.247033	32.67986
2321	4.71958	3.1250203	115.2269	114.5619	7.247883	32.66898
2322	4.71727	3.1236518	114.9742	114.3107	7.248935	32.65555
2323	4.71431	3.1221481	114.7219	114.0600	7.250144	32.64118
2324	4.71062	3.1200901	114.4751	113.8147	7.251756	32.62112
2325	4.70585	3.1196773	114.2258	113.5669	7.252597	32.62116
2326	4.70225	3.1181743	113.9791	113.3217	7.253890	32.60742
2327	4.69886	3.1175398	113.7297	113.0738	7.254676	32.60354
2328	4.69571	3.1160310	113.4802	112.8258	7.255915	32.58930
2329	4.69197	3.1151136	113.2334	112.5805	7.256904	32.58247
2330	4.68862	3.1144178	112.9840	112.3326	7.257718	32.57783
2331	4.68547	3.1138391	112.7433	112.0934	7.258442	32.57435
2332	4.68272	3.1133096	112.4939	111.8454	7.259087	32.57105
2333	4.68021	3.1128295	112.2443	111.5973	7.259674	32.56808
2334	4.67815	3.1124786	111.9949	111.3494	7.260131	32.56617
2335	4.67633	3.1120354	111.7393	111.0953	7.260607	32.56295
2336	4.67485	3.1117645	111.4895	110.8470	7.260943	32.56139
2337	4.67352	3.1114444	111.2369	110.5960	7.261287	32.55912
2338	4.67224	3.1110013	110.9845	110.3451	7.261693	32.55537
2339	4.67087	3.1107058	110.7286	110.0908	7.262030	32.55343
2340	4.66929	3.1102627	110.4669	109.8307	7.262475	32.54997
2341	4.66787	3.1095243	110.2144	109.5796	7.263064	32.54295
2342	4.66590	3.1084045	109.9648	109.3315	7.263936	32.53203
2343	4.66339	3.1069650	109.7213	109.0896	7.265056	32.51794
2344	4.65995	3.1058025	109.4688	108.8385	7.266144	32.50798
2345	4.65661	3.1047140	109.2225	108.5937	7.267178	32.49877
2346	4.65380	3.1037855	108.9694	108.3422	7.268053	32.49089
2347	4.65135	3.1021501	108.7199	108.0942	7.269277	32.47448
2348	4.64869	3.1008654	108.4735	107.8493	7.270331	32.46232
2349	4.64648	3.1002016	108.2239	107.6012	7.270983	32.45692
2350	4.64451	3.0990278	107.9742	107.3529	7.271886	32.44537
2351	4.64284	3.0983149	107.7219	107.1022	7.272495	32.43888
2352	4.64151	3.0977005	107.4721	106.8539	7.273004	32.43318
2353	4.64043	3.0969386	107.2227	106.6059	7.273563	32.42554
2354	4.63955	3.0961092	106.9731	106.3578	7.274134	32.41692
2355	4.63852	3.0956730	106.7267	106.1129	7.274505	32.41300
2356	4.63768	3.0951447	106.4801	105.8678	7.274903	32.40782
2357	4.63709	3.0946840	106.2273	105.6166	7.275230	32.40319
2358	4.63660	3.0942295	105.9809	105.3716	7.275541	32.39853
2359	4.63626	3.0938794	105.7251	105.1173	7.275775	32.39494
2360	4.63567	3.0932591	105.4789	104.8726	7.276191	32.38845
2361	4.63513	3.0926450	105.2199	104.6152	7.276598	32.38199
2362	4.63454	3.0915889	104.9797	104.3765	7.277257	32.37045
2363	4.63370	3.0909933	104.7300	104.1282	7.277692	32.36450
2364	4.63301	3.0904715	104.4775	103.8773	7.278066	32.35925
2365	4.63257	3.0900049	104.2277	103.6290	7.278378	32.35440
2366	4.63237	3.0892130	103.9720	103.3748	7.278838	32.34555
2367	4.63198	3.0886852	103.7227	103.1270	7.279178	32.33994
2368	4.63193	3.0882064	103.4731	102.8788	7.279445	32.33457
2369	4.63193	3.0874515	103.2295	102.6368	7.279859	32.32595
2370	4.63188	3.0867213	102.9738	102.3826	7.280266	32.31766
2371	4.63223	3.0859175	102.7306	102.1408	7.280663	32.30814
2372	4.63277	3.0848193	102.4870	101.8987	7.281198	32.29501
2373	4.63365	3.0836906	102.2313	101.6445	7.281705	32.28121
2374	4.63468	3.0822432	101.9818	101.3965	7.282370	32.26356
2375	4.63660	3.0809861	101.7322	101.1484	7.282813	32.24726
2376	4.63906	3.0791836	101.4826	100.9003	7.283489	32.22413
2377	4.64196	3.0781782	101.2361	100.6552	7.283663	32.20979
2378	4.64496	3.0773691	100.9864	100.4070	7.283715	32.19764
2379	4.64781	3.0760760	100.7310	100.1531	7.284055	32.18003
2380	4.65095	3.0754325	100.4874	99.9111	7.283995	32.16965
2381	4.65361	3.0747462	100.2226	99.6478	7.284022	32.15926
2382	4.65616	3.0738271	99.9698	99.3965	7.284193	32.14628
2383	4.65901	3.0733308	99.7266	99.1547	7.284089	32.13789
2384	4.66167	3.0726018	99.4648	98.8945	7.284140	32.12702
2385	4.66452	3.0720199	99.2153	98.6466	7.284084	32.11765
2386	4.66723	3.0718850	98.9654	98.3982	7.283798	32.11359
2387	4.66944	3.0718176	98.7160	98.1502	7.283539	32.11079
2388	4.67111	3.0715786	98.4695	97.9052	7.283447	32.10653
2389	4.67259	3.0712601	98.2199	97.6571	7.283424	32.10154
2390	4.67426	3.0710885	97.9764	97.4150	7.283295	32.09806
2391	4.67569	3.0708986	97.7206	97.1608	7.283207	32.09461
2392	4.67721	3.0707944	97.4774	96.9190	7.283059	32.09205
2393	4.67859	3.0705310	97.2278	96.6709	7.283019	32.08780
2394	4.68041	3.0702431	96.9751	96.4197	7.282934	32.08284
2395	4.68277	3.0701634	96.7192	96.1653	7.282662	32.07976
2396	4.68518	3.0698939	96.4790	95.9266	7.282490	32.07443
2397	4.68784	3.0696305	96.2262	95.6753	7.282282	32.06894
2398	4.69094	3.0695141	95.9676	95.4182	7.281934	32.06473
2399	4.69458	3.0693364	95.7272	95.1792	7.281549	32.05928
2400	4.69807	3.0691159	95.4716	94.9251	7.281207	32.05348
2401	4.70171	3.0689015	95.2278	94.6828	7.280843	32.04760
2402	4.70678	3.0687790	94.9753	94.4318	7.280240	32.04142
2403	4.71274	3.0687298	94.7228	94.1808	7.279480	32.03522
2404	4.71796	3.0686685	94.4823	93.9417	7.278824	32.02959
2405	4.72288	3.0687480	94.2267	93.6876	7.278129	32.02588
2406	4.72899	3.0688152	93.9709	93.4333	7.277285	32.02089
2407	4.73628	3.0689007	93.7304	93.1943	7.276276	32.01497
2408	4.74337	3.0689618	93.4749	92.9404	7.275307	32.00896
2409	4.74894	3.0690474	93.2224	92.6893	7.274524	32.00470
2410	4.75445	3.0691758	92.9759	92.4443	7.273724	32.00098
2411	4.76047	3.0692186	92.7232	92.1931	7.272907	31.99581
2412	4.76549	3.0692980	92.4767	91.9481	7.272199	31.99200
2413	4.76914	3.0693347	92.2300	91.7028	7.271695	31.98903
2414	4.77166	3.0693591	91.9773	91.4516	7.271347	31.98702
2415	4.77333	3.0694263	91.7312	91.2070	7.271084	31.98630
2416	4.77407	3.0694507	91.4814	90.9586	7.270968	31.98599
2417	4.77466	3.0694813	91.2256	90.7044	7.270867	31.98590
2418	4.77491	3.0695424	90.9729	90.4532	7.270795	31.98649
2419	4.77491	3.0695729	90.7264	90.2081	7.270773	31.98697
2420	4.77516	3.0695667	90.4770	89.9603	7.270738	31.98678
2421	4.77525	3.0696279	90.2365	89.7212	7.270685	31.98751
2422	4.77530	3.0696339	89.9747	89.4610	7.270669	31.98766
2423	4.77555	3.0696277	89.6976	89.1855	7.270634	31.98749
2424	4.77589	3.0696032	89.4268	88.9162	7.270596	31.98701
2425	4.77619	3.0695970	89.1774	88.6684	7.270555	31.98678
2426	4.77649	3.0695724	88.9247	88.4171	7.270523	31.98634
2427	4.77688	3.0695968	88.6752	88.1691	7.270452	31.98636
2428	4.77747	3.0695967	88.4316	87.9270	7.270369	31.98591
2429	4.77801	3.0696028	88.1728	87.6697	7.270289	31.98559
2430	4.77856	3.0695966	87.9202	87.4185	7.270215	31.98512
2431	4.77890	3.0695720	87.6768	87.1766	7.270178	31.98462
2432	4.77895	3.0695658	87.4330	86.9343	7.270169	31.98463
2433	4.77925	3.0695412	87.1808	86.6835	7.270138	31.98418
2434	4.77944	3.0695412	86.9220	86.4263	7.270106	31.98412
2435	4.77959	3.0695656	86.6754	86.1811	7.270067	31.98438
2436	4.77994	3.0695104	86.4258	85.9330	7.270047	31.98354
2437	4.78053	3.0695654	86.1731	85.6819	7.269933	31.98373
2438	4.78137	3.0695409	85.9358	85.4459	7.269831	31.98276
2439	4.78216	3.0695408	85.6741	85.1857	7.269721	31.98212
2440	4.78294	3.0695407	85.4307	84.9438	7.269612	31.98148
2441	4.78388	3.0695100	85.1808	84.6954	7.269501	31.98035
2442	4.78487	3.0695099	84.9346	84.4506	7.269366	31.97952
2443	4.78620	3.0694486	84.6818	84.1993	7.269220	31.97766
2444	4.78768	3.0694240	84.4323	83.9513	7.269034	31.97608
2445	4.78901	3.0694178	84.1766	83.6971	7.268857	31.97485
2446	4.78990	3.0694239	83.9269	83.4488	7.268731	31.97419
2447	4.79049	3.0694238	83.6865	83.2098	7.268648	31.97374
2448	4.79098	3.0693563	83.4338	82.9587	7.268615	31.97261
2449	4.79207	3.0693073	83.1781	82.7044	7.268494	31.97113
2450	4.79503	3.0692031	82.9257	82.4535	7.268158	31.96721
2451	4.79937	3.0691907	82.6882	82.2175	7.267591	31.96300
2452	4.80371	3.0690988	82.4354	81.9662	7.267068	31.95789
2453	4.80869	3.0690191	82.1829	81.7151	7.266454	31.95231
2454	4.81387	3.0689822	81.9271	81.4609	7.265791	31.94703
2455	4.81762	3.0688964	81.6807	81.2159	7.265342	31.94256
2456	4.82127	3.0688106	81.4280	80.9647	7.264906	31.93818
2457	4.82507	3.0687431	81.1878	80.7259	7.264440	31.93387
2458	4.82808	3.0687797	80.9351	80.4747	7.264020	31.93153
2459	4.82932	3.0688103	80.6823	80.2234	7.263836	31.93082
2460	4.82843	3.0687735	80.4330	79.9755	7.263967	31.93137
2461	4.82586	3.0686632	80.1833	79.7273	7.264357	31.93269
2462	4.82320	3.0686203	79.9365	79.4819	7.264724	31.93488
2463	4.82177	3.0684917	79.6901	79.2370	7.264976	31.93490
2464	4.82132	3.0684672	79.4376	78.9860	7.265041	31.93517
2465	4.82083	3.0684610	79.1699	78.7198	7.265103	31.93570
2466	4.82058	3.0684915	78.9170	78.4684	7.265112	31.93642
2467	4.82043	3.0684669	78.6675	78.2205	7.265139	31.93640
2468	4.82038	3.0683995	78.4238	77.9782	7.265177	31.93579
2469	4.81940	3.0683750	78.1775	77.7333	7.265314	31.93658
2470	4.81762	3.0683994	77.9247	77.4820	7.265527	31.93870
2471	4.81585	3.0684361	77.6722	77.2309	7.265733	31.94095
2472	4.81412	3.0684605	77.4196	76.9798	7.265940	31.94302
2473	4.81298	3.0683992	77.1698	76.7316	7.266116	31.94353
2474	4.81288	3.0683441	76.9233	76.4865	7.266153	31.94311
2475	4.81367	3.0682828	76.6738	76.2384	7.266078	31.94177
2476	4.81387	3.0683439	76.4274	75.9935	7.266013	31.94240
2477	4.81348	3.0683438	76.1715	75.7391	7.266058	31.94291
2478	4.81249	3.0683438	75.9281	75.4971	7.266182	31.94398
2479	4.81135	3.0683743	75.6755	75.2459	7.266307	31.94555
2480	4.81101	3.0681110	75.4288	75.0007	7.266492	31.94297
2481	4.81397	3.0676334	75.1732	74.7466	7.266362	31.93475
2482	4.82152	3.0671191	74.9266	74.5015	7.265652	31.92170
2483	4.83055	3.0669598	74.6770	74.2533	7.264552	31.91131
2484	4.83865	3.0667393	74.4336	74.0113	7.263609	31.90112
2485	4.84586	3.0667147	74.1810	73.7602	7.262674	31.89404
2486	4.85134	3.0666840	73.9251	73.5058	7.261968	31.88856
2487	4.85524	3.0666226	73.6819	73.2640	7.261486	31.88423
2488	4.85810	3.0665246	73.4382	73.0218	7.261160	31.88048
2489	4.86033	3.0664817	73.1887	72.7737	7.260887	31.87798
2490	4.86206	3.0664326	72.9420	72.5285	7.260682	31.87588
2491	4.86383	3.0664509	72.6834	72.2714	7.260434	31.87451
2492	4.86591	3.0663896	72.4402	72.0296	7.260190	31.87193
2493	4.86808	3.0663711	72.1873	71.7782	7.259910	31.86976
2494	4.87031	3.0663649	71.9406	71.5329	7.259617	31.86768
2495	4.87312	3.0662485	71.6942	71.2880	7.259307	31.86377
2496	4.87668	3.0661322	71.4386	71.0338	7.258901	31.85915
2497	4.88108	3.0660647	71.1980	70.7946	7.258357	31.85428
2498	4.88953	3.0661319	70.9514	70.5495	7.257210	31.84708
2499	4.90218	3.0662724	70.6958	70.2953	7.255474	31.83671
2500	4.91415	3.0664008	70.4526	70.0536	7.253835	31.82685
2501	4.92256	3.0664496	70.2027	69.8051	7.252704	31.81949
2502	4.92805	3.0664311	69.9592	69.5631	7.251992	31.81415
2503	4.93211	3.0664187	69.6974	69.3028	7.251463	31.81026
2504	4.93498	3.0665594	69.4538	69.0606	7.251006	31.80925
2505	4.93720	3.0666817	69.2013	68.8096	7.250642	31.80865
2506	4.93913	3.0667367	68.9395	68.5494	7.250354	31.80757
2507	4.94077	3.0668345	68.6747	68.2860	7.250081	31.80726
2508	4.94260	3.0670303	68.4343	68.0471	7.249729	31.80787
2509	4.94502	3.0672322	68.1845	67.7988	7.249296	31.80800
2510	4.94764	3.0672627	67.9354	67.5511	7.248931	31.80596
2511	4.94992	3.0674463	67.6915	67.3086	7.248528	31.80601
2512	4.95235	3.0675502	67.4389	67.0575	7.248149	31.80501
2513	4.95452	3.0676664	67.1955	66.8155	7.247796	31.80438
2514	4.95646	3.0676908	66.9491	66.5705	7.247525	31.80294
2515	4.95829	3.0678132	66.6992	66.3221	7.247213	31.80272
2516	4.96200	3.0679049	66.4496	66.0739	7.246673	31.80035
2517	4.96740	3.0680149	66.2001	65.8259	7.245903	31.79658
2518	4.97299	3.0681495	65.9505	65.5777	7.245094	31.79290
2519	4.97884	3.0682779	65.7011	65.3297	7.244256	31.78892
2520	4.98414	3.0684859	65.4572	65.0873	7.243446	31.78636
2521	4.99038	3.0687674	65.2017	64.8333	7.242473	31.78376
2522	4.99885	3.0691223	64.9520	64.5851	7.241170	31.77986
2523	5.00916	3.0694099	64.7086	64.3430	7.239665	31.77344
2524	5.01932	3.0695567	64.4620	64.0979	7.238256	31.76556
2525	5.02815	3.0697953	64.2185	63.8558	7.236971	31.76000
2526	5.03603	3.0699360	63.9630	63.6017	7.235863	31.75422
2527	5.04238	3.0701440	63.7193	63.3595	7.234918	31.75068
2528	5.04883	3.0703643	63.4729	63.1145	7.233953	31.74718
2529	5.05582	3.0705479	63.2202	62.8633	7.232938	31.74274
2530	5.06302	3.0708539	62.9766	62.6211	7.231830	31.73951
2531	5.07200	3.0715090	62.7270	62.3729	7.230300	31.73858
2532	5.08615	3.0721212	62.4836	62.1309	7.228123	31.73223
2533	5.10254	3.0725742	62.2369	61.8857	7.225743	31.72195
2534	5.11814	3.0730824	61.9906	61.6408	7.223436	31.71305
2535	5.13359	3.0738356	61.7409	61.3925	7.221017	31.70708
2536	5.15094	3.0743928	61.4943	61.1474	7.218459	31.69709
2537	5.16835	3.0751523	61.2385	60.8931	7.215786	31.68936
2538	5.18671	3.0760527	60.9922	60.6482	7.212915	31.68233
2539	5.20777	3.0769655	60.7486	60.4059	7.209691	31.67289
2540	5.23128	3.0779335	60.4989	60.1577	7.206122	31.66177
2541	5.25739	3.0786871	60.2554	59.9156	7.202335	31.64575
2542	5.28237	3.0793304	60.0089	59.6705	7.198757	31.62957
2543	5.30417	3.0798451	59.7593	59.4224	7.195660	31.61495
2544	5.32179	3.0802065	59.5157	59.1802	7.193188	31.60254
2545	5.33597	3.0804025	59.2663	58.9322	7.191248	31.59151
2546	5.34586	3.0806721	59.0226	58.6900	7.189823	31.58537
2547	5.35355	3.0807884	58.7668	58.4357	7.188763	31.57956
2548	5.35915	3.0808925	58.5081	58.1785	7.187981	31.57559
2549	5.36345	3.0809660	58.2616	57.9334	7.187382	31.57250
2550	5.36610	3.0810149	58.0152	57.6884	7.187009	31.57068
2551	5.36885	3.0813153	57.7592	57.4339	7.186488	31.57162
2552	5.37309	3.0815788	57.5220	57.1980	7.185795	31.57072
2553	5.37819	3.0817565	57.2814	56.9588	7.185038	31.56805
2554	5.38339	3.0818422	57.0258	56.7047	7.184317	31.56425
2555	5.38804	3.0818483	56.7732	56.4535	7.183709	31.56006
2556	5.39109	3.0818665	56.5299	56.2116	7.183301	31.55751
2557	5.39329	3.0819278	56.2832	55.9664	7.182979	31.55626
2558	5.39484	3.0819093	56.0336	55.7182	7.182784	31.55471
2559	5.39609	3.0819583	55.7838	55.4699	7.182591	31.55421
2560	5.39694	3.0820134	55.5372	55.2247	7.182447	31.55415
2561	5.39859	3.0820623	55.2846	54.9736	7.182202	31.55328
2562	5.40034	3.0821052	55.0412	54.7315	7.181949	31.55223
2563	5.40159	3.0821296	54.8039	54.4956	7.181769	31.55145
2564	5.40244	3.0821602	54.5511	54.2443	7.181638	31.55112
2565	5.40294	3.0821601	54.3138	54.0083	7.181568	31.55076
2566	5.40374	3.0821907	54.0611	53.7571	7.181443	31.55047
2567	5.40454	3.0821599	53.8145	53.5119	7.181351	31.54949
2568	5.40534	3.0821905	53.5709	53.2697	7.181226	31.54920
2569	5.40559	3.0821905	53.3215	53.0217	7.181188	31.54909
2570	5.40549	3.0822210	53.0747	52.7764	7.181179	31.54965
2571	5.40504	3.0821903	52.8313	52.5343	7.181248	31.54984
2572	5.40474	3.0822454	52.5877	52.2921	7.181252	31.55087
2573	5.40519	3.0822208	52.3381	52.0440	7.181201	31.55028
2574	5.40605	3.0821288	52.0915	51.7988	7.181135	31.54856
2575	5.40755	3.0822452	51.8510	51.5597	7.180874	31.54858
2576	5.40955	3.0824045	51.5955	51.3056	7.180526	31.54863
2577	5.41145	3.0824535	51.3549	51.0664	7.180250	31.54751
2578	5.41310	3.0825086	51.1114	50.8243	7.180003	31.54670
2579	5.41365	3.0823430	50.8618	50.5761	7.180015	31.54443
2580	5.41350	3.0821896	50.6243	50.3400	7.180110	31.54295
2581	5.41350	3.0821588	50.3717	50.0889	7.180121	31.54272
2582	5.41365	3.0822446	50.1313	49.8498	7.180050	31.54367
2583	5.41435	3.0822752	49.8816	49.6016	7.179938	31.54348
2584	5.41500	3.0824039	49.6322	49.3536	7.179780	31.54444
2585	5.41550	3.0824529	49.3916	49.1144	7.179684	31.54464
2586	5.41605	3.0824651	49.1420	48.8662	7.179601	31.54438
2587	5.41640	3.0823056	48.9016	48.6272	7.179636	31.54237
2588	5.41635	3.0821890	48.6518	48.3789	7.179699	31.54121
2589	5.41605	3.0821582	48.4052	48.1337	7.179748	31.54127
2590	5.41560	3.0818638	48.1558	47.8856	7.179958	31.53848
2591	5.41395	3.0816921	47.9061	47.6374	7.180256	31.53821
2592	5.41155	3.0816920	47.6686	47.4013	7.180560	31.54058
2593	5.41030	3.0817778	47.4192	47.1533	7.180669	31.54285
2594	5.41025	3.0817839	47.1696	46.9051	7.180667	31.54308
2595	5.41015	3.0816612	46.9169	46.6539	7.180739	31.54191
2596	5.40940	3.0813974	46.6795	46.4178	7.180971	31.53974
2597	5.40760	3.0812931	46.4268	46.1665	7.181253	31.54038
2598	5.40595	3.0811643	46.1863	45.9275	7.181528	31.54059
2599	5.40399	3.0809803	45.9429	45.6855	7.181872	31.54046
2600	5.40174	3.0808699	45.6931	45.4371	7.182215	31.54145
2601	5.39969	3.0809312	45.4496	45.1949	7.182441	31.54419
2602	5.39859	3.0808269	45.2060	44.9527	7.182633	31.54416
2603	5.39729	3.0807226	44.9655	44.7136	7.182850	31.54432
2604	5.39579	3.0807042	44.7252	44.4746	7.183048	31.54563
2605	5.39489	3.0806367	44.4814	44.2323	7.183194	31.54583
2606	5.39404	3.0805508	44.2349	43.9872	7.183344	31.54578
2607	5.39264	3.0805200	43.9884	43.7421	7.183535	31.54687
2608	5.39154	3.0805813	43.7480	43.5031	7.183638	31.54871
2609	5.39154	3.0806119	43.4984	43.2549	7.183616	31.54918
2610	5.39194	3.0806670	43.2608	43.0187	7.183530	31.54954
2611	5.39279	3.0806669	43.0113	42.7705	7.183415	31.54886
2612	5.39379	3.0806423	42.7738	42.5344	7.183294	31.54776
2613	5.39419	3.0805809	42.5302	42.2922	7.183270	31.54681
2614	5.39379	3.0805195	42.2838	42.0472	7.183348	31.54661
2615	5.39269	3.0804888	42.0403	41.8051	7.183501	31.54741
2616	5.39164	3.0805194	41.7968	41.5630	7.183614	31.54886
2617	5.39104	3.0804887	41.5532	41.3208	7.183702	31.54920
2618	5.39044	3.0804028	41.3128	41.0817	7.183820	31.54891
2619	5.38944	3.0803169	41.0753	40.8456	7.183989	31.54899
2620	5.38854	3.0802678	40.8318	40.6034	7.184126	31.54940
2621	5.38784	3.0802861	40.5823	40.3554	7.184200	31.55038
2622	5.38754	3.0802677	40.3447	40.1192	7.184243	31.55057
2623	5.38754	3.0803718	40.0981	39.8740	7.184182	31.55187
2624	5.38834	3.0804882	39.8546	39.6319	7.184011	31.55255
2625	5.39009	3.0806721	39.6142	39.3928	7.183682	31.55311
2626	5.39239	3.0807823	39.3706	39.1506	7.183322	31.55231
2627	5.39469	3.0808251	39.1362	38.9175	7.182997	31.55074
2628	5.39674	3.0810151	38.8986	38.6812	7.182626	31.55108
2629	5.39979	3.0811622	38.6494	38.4334	7.182149	31.55000
2630	5.40329	3.0812234	38.3904	38.1759	7.181660	31.54752
2631	5.40590	3.0813398	38.1438	37.9307	7.181258	31.54651
2632	5.40810	3.0813519	37.8973	37.6856	7.180963	31.54470
2633	5.40975	3.0814806	37.6566	37.4463	7.180676	31.54472
2634	5.41180	3.0815725	37.4133	37.2044	7.180357	31.54395
2635	5.41395	3.0816889	37.1728	36.9652	7.180013	31.54336
2636	5.41605	3.0817747	36.9353	36.7291	7.179692	31.54247
2637	5.41835	3.0818911	36.6948	36.4900	7.179328	31.54174
2638	5.42045	3.0819033	36.4452	36.2418	7.179046	31.54002
2639	5.42236	3.0820074	36.2200	36.0178	7.178740	31.53952
2640	5.42461	3.0822771	35.9704	35.7697	7.178301	31.54058
2641	5.42801	3.0824181	35.7299	35.5305	7.177783	31.53909
2642	5.43151	3.0823321	35.4984	35.3004	7.177373	31.53493
2643	5.43337	3.0822462	35.2520	35.0553	7.177175	31.53234
2644	5.43347	3.0820989	35.0144	34.8191	7.177235	31.53070
2645	5.43196	3.0819640	34.7739	34.5800	7.177495	31.53070
2646	5.42976	3.0819210	34.5364	34.3438	7.177796	31.53239
2647	5.42821	3.0818903	34.2958	34.1046	7.178006	31.53362
2648	5.42736	3.0819331	34.0586	33.8687	7.178087	31.53502
2649	5.42716	3.0819515	33.8151	33.6265	7.178098	31.53553
2650	5.42756	3.0820250	33.5898	33.4026	7.178002	31.53610
2651	5.42866	3.0821843	33.3402	33.1544	7.177769	31.53699
2652	5.43096	3.0823559	33.0997	32.9152	7.177376	31.53688
2653	5.43417	3.0825827	32.8531	32.6701	7.176838	31.53655
2654	5.43802	3.0827973	32.6218	32.4400	7.176223	31.53547
2655	5.44208	3.0828830	32.3843	32.2039	7.175651	31.53275
2656	5.44588	3.0831098	32.1376	31.9586	7.175035	31.53185
2657	5.44999	3.0832630	31.8941	31.7164	7.174421	31.52985
2658	5.45404	3.0835082	31.6537	31.4774	7.173764	31.52893
2659	5.45915	3.0837596	31.4164	31.2414	7.172968	31.52708
2660	5.46521	3.0840845	31.1848	31.0112	7.172012	31.52518
2661	5.47252	3.0844647	30.9475	30.7752	7.170865	31.52272
2662	5.48064	3.0847283	30.7039	30.5330	7.169677	31.51820
2663	5.48791	3.0848692	30.4694	30.2998	7.168664	31.51309
2664	5.49397	3.0849611	30.2229	30.0547	7.167832	31.50855
2665	5.49823	3.0850223	29.9917	29.8247	7.167248	31.50536
2666	5.50099	3.0852063	29.7540	29.5884	7.166791	31.50496
2667	5.50405	3.0856969	29.5197	29.3554	7.166133	31.50775
2668	5.50966	3.0862490	29.2821	29.1192	7.165114	31.50883
2669	5.51709	3.0871876	29.0358	28.8742	7.163659	31.51258
2670	5.52922	3.0888013	28.8012	28.6410	7.161242	31.51953
2671	5.55030	3.0906853	28.5639	28.4050	7.157540	31.52114
2672	5.58088	3.0920847	28.3265	28.1689	7.152883	31.50837
2673	5.61434	3.0935211	28.0769	27.9207	7.147843	31.49334
2674	5.65034	3.0951174	27.8333	27.6786	7.142400	31.47774
2675	5.69086	3.0970764	27.5958	27.4424	7.136199	31.46203
2676	5.73545	3.0989929	27.3523	27.2002	7.129512	31.44206
2677	5.77933	3.1001722	27.1057	26.9550	7.123311	31.41452
2678	5.82133	3.1014071	26.8682	26.7188	7.117327	31.38939
2679	5.86135	3.1043207	26.6398	26.4917	7.110729	31.38491
2680	5.91189	3.1078934	26.3993	26.2526	7.102470	31.37804
2681	5.97389	3.1068285	26.1528	26.0075	7.095180	31.30884
2682	6.02056	3.1045587	25.9156	25.7716	7.090455	31.24058
2683	6.04538	3.1023450	25.6749	25.5322	7.088457	31.19320
2684	6.05584	3.1002796	25.4374	25.2961	7.088195	31.16072
2685	6.06138	3.0994560	25.2030	25.0631	7.087915	31.14659
2686	6.07032	3.0993329	24.9625	24.8239	7.086844	31.13712
2687	6.08658	3.0994310	24.7311	24.5938	7.084736	31.12339
2688	6.10605	3.0994000	24.4784	24.3424	7.082290	31.10531
2689	6.12441	3.0993321	24.2410	24.1065	7.080004	31.08784
2690	6.14304	3.0994855	24.0067	23.8734	7.077572	31.07260
2691	6.16141	3.0998110	23.7725	23.6405	7.075084	31.05951
2692	6.17751	3.1003270	23.5318	23.4012	7.072788	31.05062
2693	6.19310	3.1008123	23.2881	23.1588	7.070572	31.04186
2694	6.20798	3.1014021	23.0598	22.9319	7.068393	31.03491
2695	6.22261	3.1021580	22.8133	22.6867	7.066161	31.03003
2696	6.23796	3.1031106	22.5819	22.4566	7.063740	31.02666
2697	6.25480	3.1034055	22.3351	22.2112	7.061469	31.01468
2698	6.26945	3.1035282	22.0979	21.9753	7.059562	31.00279
2699	6.28441	3.1032575	21.8574	21.7362	7.057816	30.98629
2700	6.30142	3.1032265	21.6198	21.4999	7.055692	30.97057
2701	6.32718	3.1040869	21.3737	21.2552	7.052019	30.95676
2702	6.36871	3.1049042	21.1327	21.0155	7.046395	30.92816
2703	6.41402	3.1057278	20.8952	20.7793	7.040301	30.89625
2704	6.45645	3.1062623	20.6548	20.5403	7.034720	30.86383
2705	6.49159	3.1066432	20.4145	20.3013	7.030134	30.83636
2706	6.51731	3.1066429	20.1768	20.0650	7.026918	30.81326
2707	6.53591	3.1071654	19.9304	19.8199	7.024331	30.80234
2708	6.55158	3.1074112	19.6869	19.5778	7.022248	30.79102
2709	6.56531	3.1081492	19.4492	19.3415	7.020163	30.78685
2710	6.58310	3.1088503	19.2059	19.0995	7.017590	30.77863
2711	6.60419	3.1098344	18.9654	18.8603	7.014467	30.77053
2712	6.63055	3.1109232	18.7247	18.6210	7.010639	30.75886
2713	6.65898	3.1114029	18.4814	18.3791	7.006860	30.73867
2714	6.68145	3.1118703	18.2438	18.1428	7.003831	30.72372
2715	6.70079	3.1130518	18.0062	17.9065	7.000838	30.71939
2716	6.72484	3.1142457	17.7597	17.6614	6.997257	30.71098
2717	6.75334	3.1155075	17.5132	17.4162	6.993094	30.69933
2718	6.78485	3.1168125	17.2695	17.1739	6.988540	30.68546
2719	6.81722	3.1177482	17.0324	16.9381	6.984069	30.66683
2720	6.84832	3.1192138	16.7918	16.6989	6.979497	30.65511
2721	6.88426	3.1205132	16.5513	16.4597	6.974415	30.63728
2722	6.92194	3.1215848	16.3044	16.2142	6.969236	30.61545
2723	6.95649	3.1238214	16.0610	15.9721	6.963878	30.60907
2724	6.99549	3.1252633	15.8204	15.7329	6.958370	30.59013
2725	7.03208	3.1265699	15.5829	15.4968	6.953231	30.57189
2726	7.06834	3.1310900	15.3396	15.2548	6.946573	30.58870
2727	7.12604	3.1346866	15.1019	15.0184	6.937752	30.57648
2728	7.19515	3.1383958	14.8615	14.7794	6.927505	30.55539
2729	7.26632	3.1414704	14.6210	14.5402	6.917340	30.52571
2730	7.32959	3.1430263	14.3896	14.3101	6.908889	30.48675
2731	7.37581	3.1430628	14.1431	14.0650	6.903251	30.44660
2732	7.40692	3.1432354	13.9086	13.8318	6.899388	30.42123
2733	7.43411	3.1436799	13.6589	13.5834	6.895872	30.40226
2734	7.46016	3.1436240	13.4153	13.3412	6.892736	30.37894
2735	7.48255	3.1429379	13.1811	13.1083	6.890346	30.35212
2736	7.51269	3.1440125	12.9314	12.8599	6.886180	30.33737
2737	7.60354	3.1462855	12.6970	12.6269	6.874115	30.28247
2738	7.79694	3.1392534	12.4565	12.3877	6.854106	30.04049
2739	8.09875	3.1308380	12.2250	12.1575	6.821776	29.69425
2740	8.44607	3.1213278	11.9877	11.9215	6.784648	29.30384
2741	8.80449	3.1142413	11.7472	11.6824	6.745307	28.93577
2742	9.10872	3.1071370	11.5098	11.4462	6.712577	28.61713
2743	9.35258	3.1016005	11.2631	11.2010	6.686386	28.36666
2744	9.53319	3.0985934	11.0132	10.9524	6.666587	28.19401
2745	9.65746	3.0971790	10.7728	10.7133	6.652724	28.08265
2746	9.75890	3.0962380	10.5327	10.4745	6.641343	27.99436
2747	9.86776	3.0926257	10.2888	10.2320	6.630250	27.87415
2748	9.99031	3.0893954	10.0544	9.9989	6.617431	27.74784
2749	10.11753	3.0876634	9.8079	9.7538	6.603479	27.63353
2750	10.24213	3.0815159	9.5673	9.5145	6.591682	27.47837
2751	10.36719	3.0664509	9.3298	9.2783	6.583489	27.23632
2752	10.50362	3.0545360	9.0924	9.0422	6.572675	27.01826
2753	10.64322	3.0425165	8.8518	8.8030	6.561524	26.79840
2754	10.76446	3.0277615	8.6114	8.5639	6.553557	26.56695
2755	10.85668	3.0178869	8.3770	8.3308	6.546937	26.40495
2756	10.91726	3.0093313	8.1426	8.0977	6.543404	26.27906
2757	10.95884	2.9968281	7.9021	7.8585	6.543603	26.12912
2758	10.99817	2.9827997	7.6617	7.6195	6.544649	25.96652
2759	11.04394	2.9708157	7.4211	7.3802	6.544130	25.81944
2760	11.09939	2.9597978	7.1746	7.1351	6.542099	25.67526
2761	11.16533	2.9465519	6.9339	6.8957	6.539722	25.50303
2762	11.23462	2.9401870	6.6873	6.6505	6.534242	25.39468
2763	11.29082	2.9342306	6.4499	6.4144	6.530103	25.29955
2764	11.33921	2.9293977	6.2032	6.1690	6.526421	25.22068
2765	11.38342	2.9242973	5.9597	5.9269	6.523321	25.14232
2766	11.42791	2.9151096	5.7192	5.6877	6.521770	25.02528
2767	11.48382	2.8970307	5.4755	5.4454	6.522335	24.81693
2768	11.55283	2.8805478	5.2319	5.2030	6.520743	24.61567
2769	11.61793	2.8643027	4.9884	4.9610	6.519481	24.42005
2770	11.68878	2.8523733	4.7420	4.7159	6.515874	24.26189
2771	11.77673	2.8478169	4.4922	4.4675	6.507464	24.16217
2772	11.85412	2.8380531	4.2548	4.2314	6.502255	24.02115
2773	11.91751	2.8316339	4.0081	3.9861	6.497382	23.92077
2774	11.95822	2.8268883	3.7617	3.7410	6.494484	23.85072
2775	11.98043	2.8131800	3.5119	3.4926	6.497097	23.70943
2776	11.99602	2.8062136	3.2622	3.2443	6.497922	23.63503
2777	12.00542	2.7994489	3.0186	3.0020	6.499383	23.56648
2778	12.02050	2.7944989	2.7660	2.7508	6.499503	23.51123
2779	12.04315	2.7896821	2.5135	2.4997	6.498694	23.45252
2780	12.06967	2.7831090	2.2729	2.2604	6.498095	23.37524
2781	12.09852	2.7788125	2.0294	2.0182	6.496369	23.31765
2782	12.11997	2.7731449	1.7887	1.7788	6.496009	23.25208
2783	12.13931	2.7633533	1.5512	1.5427	6.497435	23.14991
2784	12.17017	2.7489778	1.3108	1.3036	6.499233	22.99861
2785	12.22323	2.7360079	1.0945	1.0885	6.497915	22.84705
2786	12.30788	2.7281976	0.8935	0.8886	6.490996	22.72415
2787	12.40933	2.7190081	0.7108	0.7069	6.482637	22.57911
2788	12.52288	2.7107710	0.5466	0.5436	6.472526	22.43629
2789	12.64201	2.7073682	0.3822	0.3801	6.460011	22.33482
2790	12.74391	2.6990157	0.2453	0.2440	6.451305	22.19927
2791	12.84338	2.6980693	0.1233	0.1226	6.440205	22.13258
2792	12.92821	2.6883051	0.0229	0.0228	6.433981	21.99538
2793	13.02478	2.6826644	0.0015	0.0015	6.424928	21.88900
2794	13.06736	2.6864681	0.0017	0.0017	6.418694	21.89860
2795	13.04643	2.6913997	0.0046	0.0045	6.419326	21.95485
2796	12.95216	2.6947132	0.0017	0.0017	6.428930	22.03912
2797	12.85657	2.7000712	-0.0047	-0.0046	6.437966	22.14297
2798	12.75821	2.7042181	-0.0044	-0.0044	6.447768	22.23798
2799	12.66475	2.7106351	0.0017	0.0017	6.456194	22.35112
2800	12.57771	2.7165077	0.0016	0.0016	6.464082	22.45602
2801	12.48166	2.7191536	0.0017	0.0017	6.474204	22.53735
2802	12.38424	1.0904238	0.0017	0.0017	7.088107	8.36022
2803	12.30245	0.5002688	0.0049	0.0048	7.313854	3.63195
2804	12.25309	0.4813791	-0.0014	-0.0014	7.328467	3.49044
2805	12.22263	0.4652102	-0.0014	-0.0014	7.339099	3.36832
2806	12.19286	0.5433462	-0.0013	-0.0013	7.316089	3.97823
2807	12.17278	0.5389873	0.0016	0.0016	7.320864	3.94625
2808	12.15569	0.4720297	-0.0013	-0.0013	7.347499	3.42704
2809	12.13355	0.4078058	-0.0014	-0.0014	7.373846	2.93456
2810	12.10557	0.3861683	0.0017	0.0017	7.386051	2.77133
2811	12.07648	0.3426933	0.0017	0.0017	7.406109	2.44306
2812	12.04694	0.3030818	-0.0073	-0.0073	7.424838	2.14641
2813	12.01382	0.2810757	-0.0043	-0.0043	7.438000	1.98349
2814	11.98249	0.2436282	-0.0046	-0.0046	7.456204	1.70661
2815	11.94217	0.2253644	-0.0044	-0.0044	7.469265	1.57350
2816	11.90372	0.2137744	0.0007	0.0007	7.479725	1.48978
2817	11.88468	0.2068087	0.0018	0.0018	7.485331	1.43937
2818	11.87055	0.2030924	-0.0012	-0.0012	7.488996	1.41265
2819	11.85783	0.1959446	0.0017	0.0017	7.493601	1.36078
2820	11.84511	0.1822045	0.0017	0.0017	7.500465	1.26093
2821	11.83187	0.1758791	-0.0011	-0.0011	7.504873	1.21534
2822	11.81852	0.1708790	0.0046	0.0046	7.508848	1.17945
2823	11.80488	0.1647087	-0.0014	-0.0014	7.513273	1.13513
2824	11.79065	0.1613794	0.0017	0.0017	7.516828	1.11145
2825	11.77626	0.1572615	-0.0014	-0.0014	7.520683	1.08209
2826	11.76193	0.1514487	-0.0011	-0.0011	7.525106	1.04052
2827	11.74672	0.1506675	0.0077	0.0076	7.527967	1.03531
2828	11.73188	0.1481245	0.0046	0.0046	7.531369	1.01737
2829	11.71645	0.1483747	0.0017	0.0017	7.533920	1.01959
2830	11.69944	0.1766353	0.0017	0.0017	7.527139	1.22513
2831	11.68350	0.2303148	0.0015	0.0015	7.511201	1.62109
2832	11.66745	0.2380790	0.0047	0.0047	7.511201	1.67956
2833	11.65123	0.2411461	0.0018	0.0018	7.512873	1.70316
2834	11.63549	0.2284030	0.0049	0.0048	7.520023	1.60894
2835	11.61940	0.2111083	0.0076	0.0076	7.528818	1.48133
2836	11.60320	0.1922412	0.0078	0.0078	7.538164	1.34274
2837	11.58578	0.1860840	0.0077	0.0076	7.543285	1.29810
2838	11.56556	0.1814202	0.0045	0.0044	7.548368	1.26456
2839	11.54215	0.1786815	0.0075	0.0075	7.553335	1.24526
2840	11.51834	0.1752833	0.0077	0.0076	7.558605	1.22113
2841	11.49647	0.1753998	0.0014	0.0014	7.562322	1.22270
2842	11.47525	0.1609294	0.0044	0.0044	7.571006	1.11751
2843	11.45638	0.2023116	0.0014	0.0014	7.559785	1.42250
2844	11.45480	0.2354692	-0.0048	-0.0048	7.548330	1.66956
2845	11.46639	0.2167045	-0.0047	-0.0046	7.552992	1.52899
2846	11.47822	0.1863650	-0.0048	-0.0048	7.561630	1.30389
2847	11.48294	0.1670603	-0.0018	-0.0018	7.567552	1.16206
2848	11.48364	0.1564752	-0.0015	-0.0015	7.571104	1.08480
2849	11.48358	0.1451963	-0.0109	-0.0108	7.575013	1.00286
2850	11.48749	0.1395733	-0.0047	-0.0047	7.576276	0.96205
2851	11.49209	0.1329820	-0.0017	-0.0017	7.577745	0.91436
2852	11.49682	0.1277893	-0.0017	-0.0017	7.578709	0.87687
2853	11.49757	0.1231749	-0.0019	-0.0019	7.580155	0.84372
2854	11.49996	0.1198347	-0.0079	-0.0078	7.580882	0.81973
2855	11.50661	0.1192524	-0.0051	-0.0050	7.579930	0.81542
2856	11.51373	0.1190280	-0.0021	-0.0021	7.578776	0.81366
2857	11.52114	0.1189727	-0.0018	-0.0018	7.577514	0.81310
2858	11.52703	0.1188166	-0.0019	-0.0018	7.576549	0.81186
2859	11.52995	0.1189369	-0.0019	-0.0018	7.576004	0.81266
2860	11.52948	0.1187711	-0.0049	-0.0049	7.576141	0.81148
2861	11.52843	0.1178998	-0.0050	-0.0049	7.576619	0.80527
2862	11.53071	0.1165122	-0.0051	-0.0050	7.576697	0.79531
2863	11.53205	0.1149988	-0.0020	-0.0020	7.576979	0.78448
2864	11.53269	0.1142976	-0.0051	-0.0051	7.577107	0.77946
2865	11.53281	0.1139471	-0.0022	-0.0022	7.577205	0.77696
2866	11.53164	0.1135707	-0.0022	-0.0022	7.577535	0.77430
2867	11.53263	0.1131393	-0.0053	-0.0053	7.577510	0.77120
2868	11.53432	0.1127695	-0.0054	-0.0053	7.577343	0.76853
2869	11.53654	0.1114854	-0.0022	-0.0022	7.577395	0.75933
2870	11.53841	0.1101178	-0.0085	-0.0084	7.577535	0.74956
2871	11.53858	0.1112585	-0.0024	-0.0024	7.577118	0.75768
2872	11.53882	0.1343433	-0.0025	-0.0025	7.569213	0.92303
2873	11.53999	0.1671466	-0.0054	-0.0054	7.557711	1.16093
2874	11.54080	0.1724815	-0.0024	-0.0024	7.555720	1.19989
2875	11.53999	0.1744777	-0.0085	-0.0084	7.555167	1.21453
2876	11.53870	0.1800288	-0.0056	-0.0056	7.553457	1.25526
2877	11.53753	0.1841453	-0.0023	-0.0023	7.552224	1.28552
2878	11.53602	0.1816305	-0.0058	-0.0057	7.553360	1.26710
2879	11.53386	0.1764755	-0.0057	-0.0057	7.555525	1.22936
2880	11.53257	0.1735526	-0.0053	-0.0053	7.556761	1.20799
2881	11.53176	0.1668148	0.0345	0.0343	7.559240	1.15876
2882	11.53106	0.1631712	0.0497	0.0494	7.560623	1.13219
2883	11.52977	0.1606944	0.0499	0.0496	7.561701	1.11418
2884	11.52680	0.1574962	0.0418	0.0415	7.563319	1.09098
2885	11.52265	0.1533354	0.0322	0.0320	7.565469	1.06085
2886	11.51857	0.1480851	0.0341	0.0339	7.567983	1.02286
2887	11.51530	0.1437235	0.0306	0.0305	7.570048	0.99135
2888	11.51355	0.1399375	0.0366	0.0364	7.571652	0.96402
2889	11.51087	0.1364588	-0.0059	-0.0059	7.573310	0.93897
2890	11.50690	0.1327923	-0.0031	-0.0031	7.575252	0.91263
2891	11.50061	0.1318209	-0.0091	-0.0091	7.576673	0.90579
2892	11.48825	0.1551111	-0.0062	-0.0062	7.570783	1.07473
2893	11.46535	0.1942870	-0.0063	-0.0063	7.561066	1.36279
2894	11.43827	0.1978156	-0.0095	-0.0095	7.564478	1.38988
2895	11.41034	0.2030152	-0.0065	-0.0064	7.567447	1.42947
2896	11.38336	0.2209734	-0.0124	-0.0123	7.565724	1.56424
2897	11.35738	0.2009893	-0.0095	-0.0095	7.577280	1.41644
2898	11.33213	0.2074600	-0.0004	-0.0004	7.579341	1.46553
2899	11.30729	0.2293352	-0.0065	-0.0064	7.575824	1.63009
2900	11.28253	0.2296176	-0.0067	-0.0067	7.579987	1.63329
2901	11.25802	0.2151311	-0.0036	-0.0036	7.589398	1.52576
2902	11.23387	0.1991936	-0.0066	-0.0066	7.599262	1.40775
2903	11.21020	0.1772619	-0.0097	-0.0096	7.611161	1.24584
2904	11.18723	0.1719663	-0.0158	-0.0157	7.617032	1.20746
2905	11.16515	0.1433425	-0.0066	-0.0066	7.630979	0.99786
2906	11.14447	0.1335384	-0.0069	-0.0069	7.638035	0.92691
2907	11.12513	0.1660454	-0.0067	-0.0067	7.629962	1.16572
2908	11.10614	0.1958041	-0.0008	-0.0008	7.622662	1.38726
2909	11.08751	0.2044535	-0.0038	-0.0038	7.622801	1.45264
2910	11.06825	0.2065463	-0.0101	-0.0100	7.625402	1.46908
2911	11.04987	0.1911791	-0.0103	-0.0102	7.634137	1.35481
2912	11.03202	0.1717404	-0.0131	-0.0130	7.644223	1.21081
2913	11.01325	0.1591033	-0.0040	-0.0039	7.652023	1.11790
2914	10.99564	0.1511227	-0.0069	-0.0069	7.657957	1.05958
2915	10.97822	0.1459266	-0.0010	-0.0010	7.662870	1.02184
2916	10.96137	0.1418809	-0.0040	-0.0040	7.667275	0.99258
2917	10.94459	0.1382355	-0.0103	-0.0102	7.671528	0.96628
2918	10.92788	0.1346808	-0.0042	-0.0042	7.675741	0.94066
2919	10.91163	0.1317558	-0.0105	-0.0105	7.679650	0.91966
2920	10.89551	0.1279496	-0.0104	-0.0103	7.683852	0.89222
2921	10.87979	0.1309352	-0.0076	-0.0075	7.685577	0.91443
2922	10.86402	0.1467886	-0.0107	-0.0106	7.682719	1.03133
2923	10.84900	0.1656575	-0.0075	-0.0074	7.678599	1.17151
2924	10.83434	0.1744781	-0.0136	-0.0135	7.678005	1.23768
2925	10.81979	0.1738724	-0.0107	-0.0106	7.680793	1.23365
2926	10.80554	0.1756300	-0.0076	-0.0076	7.682675	1.24725
2927	10.79163	0.1803495	-0.0078	-0.0078	7.683420	1.28302
2928	10.77842	0.1835043	-0.0048	-0.0047	7.684608	1.30712
2929	10.76521	0.1830367	-0.0048	-0.0048	7.687114	1.30408
2930	10.75257	0.1796090	-0.0140	-0.0139	7.690597	1.27882
2931	10.73994	0.1756500	-0.0140	-0.0140	7.694274	1.24960
2932	10.72783	0.1716042	-0.0080	-0.0080	7.697893	1.21974
2933	10.71601	0.1677875	-0.0172	-0.0171	7.701377	1.19161
2934	10.70453	0.1644043	-0.0112	-0.0111	7.704644	1.16672
2935	10.69306	0.1609497	-0.0050	-0.0050	7.707938	1.14132
2936	10.68199	0.1576355	-0.0112	-0.0112	7.711110	1.11697
2937	10.67093	0.1544777	-0.0083	-0.0082	7.714225	1.09380
2938	10.65998	0.1510800	-0.0021	-0.0021	7.717408	1.06887
2939	10.64914	0.1478189	-0.0113	-0.0112	7.720521	1.04496
2940	10.63872	0.1450553	-0.0114	-0.0113	7.723383	1.02475
2941	10.62817	0.1434841	-0.0115	-0.0115	7.725834	1.01339
2942	10.61804	0.1660556	-0.0114	-0.0113	7.719436	1.18180
2943	10.60784	0.2054208	-0.0116	-0.0116	7.706779	1.47888
2944	10.59794	0.2148643	-0.0086	-0.0085	7.705038	1.55108
2945	10.58837	0.2198823	-0.0085	-0.0084	7.704870	1.58974
2946	10.57870	0.2256541	-0.0115	-0.0115	7.704437	1.63424
2947	10.56948	0.2266870	-0.0087	-0.0086	7.705686	1.64255
2948	10.56050	0.2187302	-0.0088	-0.0088	7.710244	1.58215
2949	10.55186	0.2093601	-0.0147	-0.0147	7.715264	1.51109
2950	10.54310	0.2012859	-0.0118	-0.0117	7.719818	1.45006
2951	10.53469	0.1940326	-0.0119	-0.0118	7.724004	1.39537
2952	10.52651	0.1878375	-0.0090	-0.0089	7.727755	1.34879
2953	10.51816	0.1824824	-0.0087	-0.0086	7.731225	1.30863
2954	10.51015	0.1779021	-0.0121	-0.0120	7.734346	1.27436
2955	10.50197	0.1734767	-0.0089	-0.0088	7.737441	1.24130
2956	10.49379	0.1688533	-0.0090	-0.0089	7.740607	1.20680
2957	10.48568	0.1645337	-0.0093	-0.0092	7.743651	1.17462
2958	10.47773	0.1606288	-0.0090	-0.0090	7.746511	1.14558
2959	10.47002	0.1569713	-0.0092	-0.0091	7.749239	1.11842
2960	10.46241	0.1535768	-0.0152	-0.0151	7.751850	1.09325
2961	10.45499	0.1503484	-0.0062	-0.0062	7.754369	1.06934
2962	10.44778	0.1474898	-0.0123	-0.0123	7.756712	1.04821
2963	10.44075	0.1513636	-0.0093	-0.0092	7.756555	1.07734
2964	10.43389	0.1847040	-0.0096	-0.0095	7.745476	1.32844
2965	10.42715	0.2180258	-0.0156	-0.0155	7.734246	1.58248
2966	10.42086	0.2283189	-0.0156	-0.0155	7.731502	1.66172
2967	10.41446	0.2296318	-0.0095	-0.0095	7.732150	1.67210
2968	10.40851	0.2637668	-0.0126	-0.0126	7.720305	1.93614
2969	10.40268	0.2561387	-0.0126	-0.0125	7.724235	1.87728
2970	10.39713	0.2447620	-0.0067	-0.0067	7.729531	1.78952
2971	10.39169	0.2449708	-0.0097	-0.0097	7.730420	1.79140
2972	10.38648	0.2576378	-0.0159	-0.0158	7.726547	1.88973
2973	10.38133	0.2435234	-0.0158	-0.0157	7.732814	1.78072
2974	10.37658	0.2053805	-0.0036	-0.0036	7.748030	1.48788
2975	10.37217	0.1961806	-0.0100	-0.0099	7.752265	1.41789
2976	10.36775	0.1910354	-0.0129	-0.0129	7.754980	1.37891
2977	10.36340	0.1882827	-0.0129	-0.0128	7.756790	1.35815
2978	10.35910	0.1905396	-0.0068	-0.0068	7.756719	1.37546
2979	10.35463	0.2011783	-0.0131	-0.0130	7.753540	1.45668
2980	10.34999	0.2109065	-0.0071	-0.0070	7.750720	1.53123
2981	10.34541	0.2129642	-0.0132	-0.0132	7.750767	1.54719
2982	10.34094	0.2108660	-0.0163	-0.0162	7.752357	1.53130
2983	10.33631	0.2083681	-0.0132	-0.0131	7.754127	1.51237
2984	10.33224	0.2053064	-0.0133	-0.0133	7.756008	1.48911
2985	10.32794	0.2031170	-0.0102	-0.0101	7.757602	1.47255
2986	10.32381	0.2029621	-0.0104	-0.0104	7.758401	1.47153
2987	10.31969	0.1982464	-0.0134	-0.0133	7.760913	1.43568
2988	10.31573	0.1954253	-0.0135	-0.0134	7.762682	1.41431
2989	10.31189	0.1938382	-0.0104	-0.0103	7.763968	1.40236
2990	10.30822	0.1922286	-0.0106	-0.0105	7.765232	1.39023
2991	10.30438	0.1903051	-0.0137	-0.0136	7.766645	1.37572
2992	10.30099	0.1879313	-0.0138	-0.0137	7.768144	1.35778
2993	10.29754	0.1853291	-0.0138	-0.0137	7.769739	1.33812
2994	10.29410	0.1984951	-0.0076	-0.0076	7.765420	1.43857
2995	10.29060	0.2437048	-0.0108	-0.0108	7.748950	1.78653
2996	10.28761	0.2677585	-0.0078	-0.0077	7.740308	1.97364
2997	10.28450	0.2700174	-0.0107	-0.0107	7.739997	1.99143
2998	10.28145	0.2672717	-0.0109	-0.0108	7.741592	1.97018
2999	10.27829	0.2690777	-0.0108	-0.0108	7.741465	1.98443
3000	10.27541	0.2689775	-0.0111	-0.0111	7.742017	1.98381
3001	10.27265	0.2670750	-0.0171	-0.0170	7.743239	1.96911
3002	10.26988	0.2595818	-0.0140	-0.0139	7.746600	1.91087
3003	10.26712	0.2490949	-0.0172	-0.0171	7.751098	1.82949
3004	10.26441	0.2391863	-0.0080	-0.0080	7.755359	1.75281
3005	10.26176	0.2301627	-0.0143	-0.0142	7.759265	1.68316
3006	10.25922	0.2221612	-0.0112	-0.0111	7.762757	1.62157
3007	10.25679	0.2149660	-0.0111	-0.0110	7.765918	1.56631
3008	10.25420	0.2086246	-0.0114	-0.0113	7.768782	1.51772
3009	10.25154	0.2029318	-0.0111	-0.0111	7.771409	1.47419
3010	10.24889	0.1979877	-0.0114	-0.0114	7.773750	1.43647
3011	10.24647	0.1932076	-0.0082	-0.0082	7.775988	1.40004
3012	10.24387	0.1976518	-0.0115	-0.0115	7.774782	1.43409
3013	10.24139	0.2414309	-0.0176	-0.0175	7.758629	1.77130
3014	10.23886	0.2733161	-0.0148	-0.0147	7.746881	2.01970
3015	10.23666	0.2777795	-0.0086	-0.0086	7.745558	2.05474
3016	10.23440	0.2764560	-0.0115	-0.0115	7.746470	2.04451
3017	10.23203	0.2795892	-0.0087	-0.0087	7.745688	2.06918
3018	10.22983	0.2787085	-0.0119	-0.0118	7.746419	2.06240
3019	10.22769	0.2753789	-0.0178	-0.0177	7.748082	2.03645
3020	10.22583	0.2649014	-0.0119	-0.0118	7.752439	1.95466
3021	10.22380	0.2531878	-0.0148	-0.0147	7.757291	1.86348
3022	10.22183	0.2432738	-0.0119	-0.0118	7.761435	1.78654
3023	10.21997	0.2344746	-0.0151	-0.0150	7.765126	1.71844
3024	10.21822	0.2266125	-0.0152	-0.0151	7.768434	1.65773
3025	10.21664	0.2196657	-0.0091	-0.0090	7.771358	1.60421
3026	10.21484	0.2134037	-0.0152	-0.0151	7.774059	1.55608
3027	10.21315	0.2079937	-0.0120	-0.0119	7.776413	1.51457
3028	10.21129	0.2028612	-0.0122	-0.0121	7.778691	1.47527
3029	10.20971	0.1980281	-0.0121	-0.0121	7.780802	1.43831
3030	10.20808	0.1935833	-0.0213	-0.0212	7.782774	1.40438
3031	10.20656	0.1893842	-0.0184	-0.0183	7.784632	1.37236
3032	10.20487	0.2097755	-0.0092	-0.0092	7.777231	1.52860
3033	10.20329	0.2600982	-0.0096	-0.0095	7.758318	1.91837
3034	10.20171	0.2765668	-0.0184	-0.0183	7.752269	2.04720
3035	10.20036	0.2761547	-0.0154	-0.0153	7.752669	2.04405
3036	10.19890	0.2768509	-0.0156	-0.0155	7.752663	2.04959
3037	10.19771	0.2756386	-0.0156	-0.0156	7.753341	2.04016
3038	10.19647	0.2742643	-0.0124	-0.0124	7.754092	2.02946
3039	10.19535	0.2720017	-0.0188	-0.0187	7.755165	2.01181
3040	10.19422	0.2646048	-0.0127	-0.0126	7.758212	1.95403
3041	10.19321	0.2549567	-0.0127	-0.0126	7.762098	1.87881
3042	10.19214	0.2457137	-0.0159	-0.0158	7.765832	1.80694
3043	10.19124	0.2371109	-0.0128	-0.0128	7.769283	1.74021
3044	10.19022	0.2290605	-0.0129	-0.0128	7.772538	1.67792
3045	10.18955	0.2216592	-0.0131	-0.0131	7.775479	1.62078
3046	10.18865	0.2150507	-0.0190	-0.0189	7.778154	1.56987
3047	10.18763	0.2090262	-0.0160	-0.0159	7.780624	1.52356
3048	10.18679	0.2035076	-0.0129	-0.0128	7.782868	1.48121
3049	10.18577	0.1985826	-0.0161	-0.0160	7.784915	1.44349
3050	10.18510	0.1938013	-0.0162	-0.0161	7.786845	1.40692
3051	10.18431	0.1894645	-0.0130	-0.0129	7.788624	1.37381
3052	10.18347	0.2067661	-0.0102	-0.0101	7.782233	1.50636
3053	10.18262	0.2565032	-0.0132	-0.0131	7.763404	1.89141
3054	10.18211	0.2764664	-0.0225	-0.0224	7.755813	2.04751
3055	10.18133	0.2759746	-0.0163	-0.0162	7.756144	2.04370
3056	10.18088	0.2759226	-0.0195	-0.0194	7.756245	2.04332
3057	10.18031	0.2754517	-0.0165	-0.0164	7.756527	2.03966
3058	10.17986	0.2748562	-0.0165	-0.0164	7.756837	2.03502
3059	10.17941	0.2726969	-0.0134	-0.0134	7.757750	2.01813
3060	10.17890	0.2653774	-0.0166	-0.0165	7.760660	1.96089
3061	10.17857	0.2554583	-0.0197	-0.0196	7.764533	1.88348
3062	10.17823	0.2458473	-0.0166	-0.0165	7.768279	1.80867
3063	10.17772	0.2371075	-0.0197	-0.0196	7.771715	1.74083
3064	10.17761	0.2291217	-0.0198	-0.0197	7.774785	1.67897
3065	10.17750	0.2220561	-0.0167	-0.0166	7.777499	1.62437
3066	10.17716	0.2155412	-0.0169	-0.0168	7.780039	1.57414
3067	10.17688	0.2094447	-0.0199	-0.0198	7.782406	1.52723
3068	10.17660	0.2040633	-0.0169	-0.0169	7.784498	1.48589
3069	10.17609	0.1987977	-0.0171	-0.0170	7.786584	1.44552
3070	10.17581	0.1938483	-0.0171	-0.0170	7.788507	1.40764
3071	10.17553	0.1894344	-0.0141	-0.0140	7.790225	1.37391
3072	10.17536	0.1893239	-0.0201	-0.0200	7.790297	1.37307
3073	10.17502	0.2301050	-0.0171	-0.0170	7.774876	1.68670
3074	10.17474	0.2682109	-0.0172	-0.0171	7.760316	1.98327
3075	10.17772	0.2737590	-0.0110	-0.0109	7.757643	2.02654
3076	10.19157	0.2714104	-0.0173	-0.0172	7.756068	2.00739
3077	10.20267	0.2730981	-0.0172	-0.0171	7.753433	2.01999
3078	10.21974	0.2729563	-0.0112	-0.0112	7.750434	2.01794
3079	10.25228	0.2707916	-0.0174	-0.0173	7.745452	1.99923
3080	10.29122	0.2649979	-0.0173	-0.0172	7.740719	1.95193
3081	10.32670	0.2602185	-0.0145	-0.0144	7.736215	1.91286
3082	10.36985	0.2478336	-0.0174	-0.0173	7.733229	1.81461
3083	10.40795	0.2375885	-0.0176	-0.0175	7.730313	1.73365
3084	10.44002	0.2313369	-0.0147	-0.0146	7.726953	1.68404
3085	10.47109	0.2225207	-0.0207	-0.0206	7.724727	1.61500
3086	10.49425	0.2146209	-0.0117	-0.0116	7.723556	1.55359
3087	10.51083	0.2094850	-0.0117	-0.0116	7.722518	1.51372
3088	10.52992	0.2035579	-0.0178	-0.0177	7.721323	1.46784
3089	10.55686	0.1970503	-0.0179	-0.0178	7.718938	1.41740
3090	10.57967	0.1936032	-0.0179	-0.0178	7.716153	1.39043
3091	10.60425	0.1874660	-0.0208	-0.0207	7.714040	1.34315
3092	10.62521	0.1836781	-0.0181	-0.0180	7.711705	1.31385
3093	10.64567	0.1817512	-0.0242	-0.0240	7.708775	1.29862
3094	10.66836	0.2143806	-0.0152	-0.0151	7.692744	1.54446
3095	10.69112	0.2567503	-0.0212	-0.0211	7.673002	1.86734
3096	10.72543	0.2631599	-0.0151	-0.0150	7.664588	1.91489
3097	10.76057	0.2645905	-0.0213	-0.0212	7.657895	1.92408
3098	10.79106	0.2677408	-0.0181	-0.0180	7.651388	1.94671
3099	10.82655	0.2647491	-0.0154	-0.0153	7.646296	1.92187
3100	10.84900	0.2624154	-0.0182	-0.0181	7.643238	1.90280
3101	10.88208	0.2570459	-0.0244	-0.0243	7.639448	1.85999
3102	10.92529	0.2494647	-0.0215	-0.0214	7.634702	1.79995
3103	10.96195	0.2441832	-0.0186	-0.0185	7.630252	1.75797
3104	10.99743	0.2325999	-0.0215	-0.0214	7.628301	1.66842
3105	11.01239	0.2268668	-0.0093	-0.0092	7.627781	1.62438
3106	11.02643	0.2186554	-0.0216	-0.0215	7.628314	1.56181
3107	11.04509	0.2100146	-0.0156	-0.0155	7.628188	1.49603
3108	11.05661	0.2058081	-0.0216	-0.0215	7.627697	1.46400
3109	11.07171	0.1985618	-0.0128	-0.0128	7.627672	1.40916
3110	11.08071	0.1943577	-0.0189	-0.0188	7.627614	1.37741
3111	11.09160	0.1899194	-0.0126	-0.0125	7.627304	1.34391
3112	11.10279	0.1837079	-0.0157	-0.0156	7.627573	1.29728
3113	11.10429	0.1806396	-0.0220	-0.0219	7.628407	1.27444
3114	11.10926	0.1760294	-0.0219	-0.0218	7.629185	1.24007
3115	11.10285	0.1746743	-0.0189	-0.0188	7.630786	1.23024
3116	11.10089	0.2033824	-0.0220	-0.0219	7.620856	1.44410
3117	11.09022	0.2500817	-0.0160	-0.0159	7.605820	1.79666
3118	11.08918	0.2576165	-0.0161	-0.0160	7.603255	1.85399
3119	11.07546	0.2642213	-0.0222	-0.0221	7.603219	1.90499
3120	11.06808	0.2668845	-0.0163	-0.0163	7.603522	1.92569
3121	11.05160	0.2661839	-0.0192	-0.0191	7.606630	1.92119
3122	11.03979	0.2609100	-0.0252	-0.0251	7.610606	1.88155
3123	11.02309	0.2516941	-0.0224	-0.0222	7.616872	1.81218
3124	11.00784	0.2408869	-0.0164	-0.0163	7.623468	1.73077
3125	10.99104	0.2319392	-0.0164	-0.0163	7.629655	1.66370
3126	10.98029	0.2230598	-0.0224	-0.0223	7.634762	1.59700
3127	10.96585	0.2167387	-0.0165	-0.0164	7.639581	1.54989
3128	10.95154	0.2109365	-0.0164	-0.0163	7.644191	1.50674
3129	10.93540	0.2054913	-0.0164	-0.0163	7.648994	1.46640
3130	10.92047	0.2004346	-0.0166	-0.0165	7.653446	1.42896
3131	10.90503	0.1956096	-0.0166	-0.0165	7.657905	1.39332
3132	10.89166	0.1906699	-0.0166	-0.0166	7.662045	1.35677
3133	10.87761	0.1863854	-0.0166	-0.0165	7.666068	1.32519
3134	10.86402	0.1821116	-0.0197	-0.0196	7.670008	1.29369
3135	10.85055	0.1776820	-0.0259	-0.0257	7.673985	1.26106
3136	10.83829	0.1736295	-0.0199	-0.0198	7.677614	1.23122
3137	10.82620	0.1700588	-0.0230	-0.0228	7.681039	1.20500
3138	10.81338	0.1748642	-0.0200	-0.0199	7.681567	1.24127
3139	10.80124	0.2192586	-0.0199	-0.0198	7.667514	1.57588
3140	10.79049	0.2489334	-0.0169	-0.0169	7.658463	1.80245
3141	10.78007	0.2525488	-0.0201	-0.0200	7.658949	1.83064
3142	10.77561	0.2530775	-0.0170	-0.0169	7.659535	1.83491
3143	10.76778	0.2539944	-0.0172	-0.0171	7.660569	1.84233
3144	10.76086	0.2516497	-0.0173	-0.0172	7.662652	1.82470
3145	10.75166	0.2510595	-0.0233	-0.0231	7.664486	1.82063
3146	10.74531	0.2481863	-0.0234	-0.0233	7.666665	1.79893
3147	10.73737	0.2418851	-0.0204	-0.0203	7.670397	1.75108
3148	10.73246	0.2328726	-0.0174	-0.0173	7.674598	1.68246
3149	10.72646	0.2249034	-0.0205	-0.0204	7.678600	1.62200
3150	10.72161	0.2176293	-0.0204	-0.0203	7.682140	1.56690
3151	10.71521	0.2110988	-0.0267	-0.0265	7.685674	1.51761
3152	10.71093	0.2043291	-0.0144	-0.0144	7.688921	1.46651
3153	10.70448	0.1988612	-0.0176	-0.0175	7.692071	1.42542
