Scan Count	Temperature [ITS-90, deg C]	Conductivity [S/m]	Pressure, Strain Gauge [db]	Depth [salt water, m]	Oxygen Saturation, Weiss [ml/l]	Salinity, Practical [PSU]
1	14.93194	0.0025545	-0.0207	-0.0206	7.056916	0.01918
2	14.92745	0.0024773	-0.0208	-0.0207	7.057621	0.01878
3	14.92360	0.0024187	-0.0178	-0.0177	7.058223	0.01847
4	14.92072	0.0023601	-0.0208	-0.0207	7.058678	0.01817
5	14.91847	0.0023045	-0.0178	-0.0177	7.059034	0.01788
6	14.91674	0.0022552	-0.0210	-0.0209	7.059310	0.01762
7	14.73518	0.2922869	0.0216	0.0215	7.004691	1.92670
8	12.50677	3.1983265	0.4356	0.4332	6.295657	26.93496
9	11.46347	3.2544913	0.7582	0.7540	6.386536	28.23616
10	11.35302	3.2773011	0.7460	0.7419	6.389653	28.54032
11	11.30931	3.3001715	0.7277	0.7237	6.385496	28.79493
12	11.32881	3.3116198	0.7460	0.7419	6.378962	28.89029
13	11.32126	3.3156285	0.7551	0.7510	6.378217	28.93492
14	11.28936	3.3118596	0.7308	0.7268	6.383102	28.92349
15	11.26299	3.3119040	0.7399	0.7358	6.385918	28.94458
16	11.25853	3.3130385	0.7581	0.7540	6.385956	28.95905
17	11.23808	3.3148414	0.7520	0.7479	6.387451	28.99257
18	11.22372	3.3121124	0.7307	0.7267	6.390057	28.97742
19	11.24074	3.3157807	0.7490	0.7449	6.386799	28.99957
20	11.25088	3.3158121	0.7612	0.7570	6.385698	28.99191
21	11.26038	3.3145827	0.7399	0.7358	6.385156	28.97255
22	11.28530	3.3186745	0.7368	0.7328	6.380891	28.99258
23	11.30420	3.3189518	0.7581	0.7540	6.378757	28.98042
24	11.33136	3.3255699	0.7490	0.7449	6.373282	29.02309
25	11.33368	3.3188506	0.7307	0.7267	6.375637	28.95634
26	11.29997	3.3216958	0.7490	0.7449	6.378146	29.01028
27	11.31302	3.3311578	0.7521	0.7479	6.373078	29.09154
28	11.36818	3.3354657	0.7369	0.7329	6.365517	29.08976
29	11.38684	3.3388721	0.7461	0.7420	6.362211	29.10798
30	11.41539	3.3416221	0.7491	0.7450	6.358108	29.11205
31	11.44472	3.3459354	0.7430	0.7389	6.353324	29.13058
32	11.43849	3.3410717	0.7461	0.7420	6.355860	29.08858
33	11.39114	3.3398330	0.7461	0.7420	6.361382	29.11387
34	11.36138	3.3314794	0.7371	0.7330	6.367785	29.05660
35	11.36405	3.3281010	0.7432	0.7391	6.368806	29.02187
36	11.39300	3.3267560	0.7584	0.7542	6.366233	28.98618
37	11.42708	3.3317061	0.7402	0.7362	6.360685	29.00722
38	11.43651	3.3234168	0.7402	0.7362	6.362874	28.91993
39	11.40957	3.3200860	0.7465	0.7424	6.367037	28.90887
40	11.39963	3.3291045	0.7526	0.7484	6.364619	29.00364
41	11.40847	3.3247612	0.7313	0.7273	6.365351	28.95483
42	11.34018	3.3150862	0.7436	0.7395	6.376398	28.91488
43	11.33780	3.3195317	0.7711	0.7668	6.374932	28.95967
44	11.37277	3.3230452	0.7498	0.7457	6.369829	28.96621
45	11.35366	3.3163343	0.7256	0.7216	6.374471	28.91640
46	11.28623	3.3083000	0.7469	0.7428	6.384822	28.89151
47	11.29342	3.3196709	0.7774	0.7732	6.379634	28.99583
48	11.32231	3.3256142	0.7349	0.7308	6.374234	29.03063
49	11.32689	3.3144874	0.7350	0.7310	6.378055	28.91950
50	11.26826	3.3125468	0.7777	0.7735	6.385102	28.94665
51	11.29869	3.3268517	0.7656	0.7614	6.376281	29.06116
52	11.36806	3.3220609	0.7262	0.7222	6.370713	28.96041
53	11.32788	3.3103155	0.7445	0.7404	6.379567	28.87842
54	11.31517	3.3145443	0.7782	0.7739	6.379291	28.92921
55	11.33316	3.3226355	0.7630	0.7588	6.374227	28.99331
56	11.31697	3.3195634	0.7357	0.7317	6.377151	28.97633
57	11.30658	3.3069078	0.7572	0.7530	6.383175	28.86213
58	11.33734	3.3126721	0.7664	0.7622	6.377639	28.89378
59	11.35552	3.3136047	0.7513	0.7472	6.375329	28.88858
60	11.35505	3.3084882	0.7484	0.7442	6.377359	28.83956
61	11.32707	3.3061644	0.7485	0.7444	6.381263	28.83896
62	11.29800	3.3036965	0.7608	0.7566	6.385344	28.83780
63	11.28234	3.3064672	0.7671	0.7628	6.385951	28.87682
64	11.29724	3.3082936	0.7459	0.7418	6.383640	28.88283
65	11.27295	3.3023055	0.7399	0.7358	6.388578	28.84392
66	11.24879	3.2998449	0.7827	0.7784	6.392137	28.83898
67	11.27898	3.3113998	0.7707	0.7665	6.384396	28.92715
68	11.30055	3.3058372	0.7282	0.7242	6.384238	28.85651
69	11.27759	3.2988001	0.7526	0.7485	6.389442	28.80640
70	11.27736	3.3027713	0.7924	0.7880	6.387924	28.84496
71	11.30623	3.3127985	0.7530	0.7488	6.380927	28.91934
72	11.33264	3.3048924	0.7287	0.7247	6.381157	28.82233
73	11.28431	3.3010340	0.7775	0.7733	6.387851	28.82274
74	11.25910	3.3077019	0.7899	0.7856	6.387970	28.90694
75	11.29237	3.3080668	0.7262	0.7222	6.384251	28.88445
76	11.25181	3.3000840	0.7385	0.7344	6.391719	28.83896
77	11.18647	3.3028100	0.7995	0.7951	6.397698	28.91649
78	11.19803	3.3124152	0.7723	0.7680	6.392703	29.00053
79	11.25291	3.3088169	0.7268	0.7228	6.388202	28.92261
80	11.21533	3.3016012	0.7543	0.7502	6.395058	28.88217
81	11.17664	3.3051900	0.8032	0.7988	6.397828	28.94727
82	11.20185	3.3126924	0.7486	0.7445	6.392183	29.00022
83	11.23576	3.3054979	0.7396	0.7355	6.391339	28.90391
84	11.19387	3.3033450	0.7885	0.7842	6.396691	28.91587
85	11.19965	3.3101530	0.7887	0.7843	6.393411	28.97732
86	11.22725	3.3116019	0.7523	0.7481	6.389876	28.96969
87	11.22720	3.3059010	0.7433	0.7393	6.392104	28.91452
88	11.20093	3.3047175	0.7770	0.7727	6.395395	28.92364
89	11.20764	3.3089875	0.7833	0.7790	6.393007	28.95975
90	11.19705	3.3100207	0.7591	0.7549	6.393743	28.97809
91	11.19792	3.3040249	0.7501	0.7460	6.395989	28.91930
92	11.18994	3.3008462	0.7777	0.7734	6.398091	28.89474
93	11.20185	3.3056998	0.7748	0.7705	6.394912	28.93244
94	11.21522	3.3079417	0.7476	0.7435	6.392598	28.94368
95	11.21979	3.3041506	0.7447	0.7406	6.393584	28.90337
96	11.19740	3.3003678	0.7844	0.7801	6.397473	28.88425
97	11.19237	3.3043146	0.7847	0.7804	6.396475	28.92645
98	11.21389	3.3044970	0.7391	0.7350	6.394084	28.91136
99	11.19323	3.2961965	0.8366	0.8320	6.399551	28.84708
100	11.05279	3.2912618	1.5095	1.5012	6.416685	28.90904
101	10.96503	3.2918980	2.3771	2.3641	6.425968	28.98400
102	10.92659	3.2892838	3.4882	3.4690	6.431196	28.98841
103	10.63675	3.2819431	4.7363	4.7102	6.465788	29.14604
104	10.40632	3.2844771	5.9296	5.8969	6.490102	29.35535
105	10.53682	3.2862979	7.1198	7.0806	6.475034	29.26792
106	10.27227	3.2732301	8.3557	8.3097	6.509537	29.35111
107	9.74070	3.2644581	9.6129	9.5598	6.572469	29.69674
108	9.53950	3.2630382	10.8152	10.7555	6.595733	29.84850
109	9.25433	3.2614502	12.0390	11.9725	6.628717	30.07039
110	9.04578	3.2598618	13.3113	13.2378	6.653176	30.22986
111	8.94127	3.2599698	14.5685	14.4880	6.665095	30.31937
112	8.86146	3.2608041	15.7587	15.6716	6.673888	30.39567
113	8.72689	3.2605866	16.9673	16.8733	6.689452	30.50845
114	8.54034	3.2597998	18.2458	18.1447	6.711320	30.66105
115	8.40567	3.2591314	19.5059	19.3979	6.727216	30.77078
116	8.30332	3.2581560	20.7876	20.6724	6.739551	30.84957
117	8.26851	3.2571674	22.0843	21.9618	6.744069	30.86917
118	8.23802	3.2554652	23.3933	23.2635	6.748415	30.87751
119	8.19984	3.2540325	24.6657	24.5288	6.753538	30.89545
120	8.15699	3.2516239	25.9472	25.8030	6.759658	30.90726
121	8.09839	3.2488596	27.2622	27.1107	6.767794	30.92921
122	8.00747	3.2454901	28.5865	28.4275	6.780012	30.97336
123	7.95536	3.2447782	29.8984	29.7320	6.786477	31.01140
124	7.93500	3.2432972	31.2134	31.0396	6.789579	31.01320
125	7.92171	3.2420413	32.5406	32.3593	6.791749	31.01109
126	7.85092	3.2388304	33.8161	33.6276	6.801593	31.03933
127	7.73595	3.2373077	34.9972	34.8020	6.815885	31.12503
128	7.69355	3.2334364	36.1630	35.9612	6.822737	31.12114
129	7.66645	3.2317451	37.3410	37.1325	6.826764	31.12680
130	7.65161	3.2314023	38.5222	38.3070	6.828706	31.13588
131	7.63709	3.2311406	39.6943	39.4724	6.830572	31.14555
132	7.61145	3.2303111	40.8876	40.6590	6.834027	31.15911
133	7.53815	3.2295632	42.0627	41.8273	6.843106	31.21633
134	7.50474	3.2288837	43.2468	43.0047	6.847424	31.23856
135	7.48307	3.2288157	44.4675	44.2185	6.850058	31.25678
136	7.45595	3.2307324	45.6791	45.4231	6.852398	31.30123
137	7.42155	3.2310889	46.8633	46.6006	6.856348	31.33557
138	7.39306	3.2304154	48.0597	47.7901	6.860088	31.35355
139	7.35614	3.2285501	49.2652	48.9887	6.865406	31.36635
140	7.30246	3.2262612	50.5042	50.2206	6.872940	31.38978
141	7.25579	3.2241163	51.7463	51.4556	6.879577	31.40843
142	7.20814	3.2215042	52.9305	52.6329	6.886569	31.42299
143	7.15282	3.2173162	54.0661	53.7620	6.895254	31.42752
144	7.08498	3.2144323	55.1712	54.8607	6.904836	31.45760
145	7.05458	3.2132494	56.2792	55.9624	6.909095	31.47199
146	7.02977	3.2114625	57.3845	57.0613	6.912979	31.47475
147	7.00093	3.2105913	58.5260	58.1963	6.916909	31.49113
148	6.99028	3.2102368	59.6494	59.3131	6.918391	31.49650
149	6.98519	3.2100691	60.7727	60.4299	6.919111	31.49881
150	6.97127	3.2091232	61.9205	61.5711	6.921279	31.50073
151	6.94168	3.2075862	63.0987	62.7425	6.925632	31.51055
152	6.89253	3.2058443	64.3012	63.9380	6.932462	31.53608
153	6.85704	3.2050112	65.4673	65.0973	6.937197	31.55902
154	6.83220	3.2044517	66.6120	66.2354	6.940511	31.57522
155	6.81828	3.2036122	67.7659	67.3825	6.942638	31.57831
156	6.80230	3.2034323	68.9198	68.5298	6.944692	31.59051
157	6.80313	3.2055172	70.0857	69.6889	6.943588	31.61198
158	6.81337	3.2062269	71.2609	70.8572	6.942019	31.60976
159	6.77713	3.2033155	72.4422	72.0316	6.947882	31.61077
160	6.70360	3.1972403	73.6418	73.2241	6.959863	31.61152
161	6.61121	3.1935619	74.8383	74.4136	6.972996	31.65595
162	6.57155	3.1921086	76.0226	75.5911	6.978598	31.67614
163	6.52524	3.1903389	77.2161	76.7775	6.985181	31.69903
164	6.48540	3.1889048	78.4614	78.0155	6.990812	31.71963
165	6.44662	3.1867818	79.7066	79.2534	6.996667	31.73167
166	6.39421	3.1837841	81.0037	80.5428	7.004652	31.74674
167	6.37107	3.1832447	82.2580	81.7898	7.007800	31.76173
168	6.36130	3.1827673	83.5276	83.0520	7.009273	31.76496
169	6.34851	3.1821162	84.7942	84.3111	7.011206	31.76909
170	6.33220	3.1811053	86.0972	85.6064	7.013757	31.77250
171	6.29469	3.1787484	87.3668	86.8685	7.019609	31.78081
172	6.25287	3.1790967	88.6517	88.1457	7.024627	31.82313
173	6.24318	3.1795128	89.9792	89.4654	7.025643	31.83618
174	6.24848	3.1831805	91.2702	90.7487	7.023151	31.87126
175	6.24746	3.1844161	92.5550	92.0259	7.022677	31.88531
176	6.24665	3.1857264	93.8580	93.3212	7.022140	31.89999
177	6.25032	3.1902851	95.1855	94.6407	7.019399	31.94646
178	6.25767	3.1914409	96.5161	95.9635	7.017934	31.95175
179	6.19953	3.1877834	97.8648	97.3041	7.027000	31.96514
180	6.14294	3.1861637	99.2288	98.6599	7.034853	31.99974
181	6.10601	3.1858851	100.5897	100.0127	7.039598	32.03080
182	6.07017	3.1849547	101.9293	101.3443	7.044545	32.05363
183	6.04041	3.1848995	103.2720	102.6790	7.048295	32.08050
184	6.03492	3.1852849	104.6268	104.0257	7.048807	32.08934
185	6.01995	3.1851116	105.9909	105.3816	7.050784	32.10092
186	5.97912	3.1857705	107.3458	106.7283	7.055545	32.14633
187	5.93868	3.1862991	108.7220	108.0962	7.060327	32.18999
188	5.90536	3.1893801	110.1042	109.4701	7.062906	32.25553
189	5.89084	3.1928473	111.4409	110.7988	7.062945	32.30759
190	5.87541	3.1943269	112.6771	112.0275	7.064123	32.33832
191	5.87197	3.1953279	113.8463	113.1896	7.064057	32.35227
192	5.86651	3.1960370	115.0033	114.3397	7.064394	32.36488
193	5.86130	3.1964476	116.1696	115.4989	7.064854	32.37391
194	5.83593	3.1998991	117.3053	116.6277	7.066239	32.43642
195	5.79673	3.2014673	118.4258	117.7415	7.070318	32.49114
196	5.79063	3.2021892	119.5403	118.8491	7.070726	32.50460
197	5.79068	3.2023327	120.6610	119.9630	7.070671	32.50561
198	5.79128	3.2026005	121.8089	121.1040	7.070482	32.50748
199	5.79224	3.2031172	122.9539	122.2421	7.070119	32.51181
200	5.79578	3.2044179	124.1293	123.4103	7.069030	32.52246
201	5.79795	3.2049099	125.3015	124.5754	7.068531	32.52533
202	5.80067	3.2056819	126.4799	125.7465	7.067817	32.53082
203	5.80183	3.2059747	127.6615	126.9209	7.067547	32.53241
204	5.80143	3.2065290	128.8429	128.0951	7.067335	32.53846
205	5.79956	3.2069775	130.0334	129.2784	7.067361	32.54472
206	5.79916	3.2070277	131.2485	130.4860	7.067412	32.54508
207	5.79906	3.2074825	132.4725	131.7025	7.067216	32.54969
208	5.79825	3.2081178	133.7026	132.9251	7.067013	32.55702
209	5.79764	3.2083921	134.9359	134.1507	7.066973	32.56008
210	5.79406	3.2098618	136.1570	135.3643	7.066681	32.57947
211	5.78366	3.2122101	137.3839	136.5837	7.066776	32.61532
212	5.77397	3.2131635	138.6446	137.8366	7.067509	32.63479
213	5.76681	3.2134194	139.9113	139.0955	7.068293	32.64397
214	5.76403	3.2136752	141.1840	140.3604	7.068533	32.64891
215	5.76252	3.2138251	142.4537	141.6223	7.068671	32.65144
216	5.76161	3.2139688	143.7387	142.8993	7.068738	32.65331
217	5.76161	3.2139630	145.0115	144.1642	7.068770	32.65262
218	5.76116	3.2139696	146.2965	145.4413	7.068852	32.65251
219	5.76040	3.2140074	147.5936	146.7303	7.068955	32.65303
220	5.75944	3.2140763	148.8816	148.0103	7.069067	32.65410
221	5.75869	3.2141577	150.1849	149.3056	7.069148	32.65511
222	5.75712	3.2142516	151.4942	150.6067	7.069323	32.65704
223	5.75516	3.2143641	152.8369	151.9410	7.069539	32.65955
224	5.75410	3.2145888	154.1828	153.2786	7.069583	32.66245
225	5.75400	3.2155487	155.5286	154.6160	7.069126	32.67270
226	5.75364	3.2162283	156.8501	155.9291	7.068845	32.68005
227	5.75183	3.2176184	158.1868	157.2575	7.068376	32.69680
228	5.73937	3.2192083	159.4505	158.5134	7.069119	32.72616
229	5.73196	3.2204244	160.6473	159.7026	7.069430	32.74646
230	5.72602	3.2212914	161.8289	160.8768	7.069742	32.76142
231	5.72037	3.2226637	163.0253	162.0657	7.069752	32.78179
232	5.71478	3.2238740	164.2405	163.2732	7.069841	32.80027
233	5.70435	3.2264320	165.4493	164.4745	7.069823	32.83867
234	5.69403	3.2280547	166.6978	165.7151	7.070283	32.86642
235	5.69236	3.2282673	167.9737	166.9829	7.070406	32.86981
236	5.69236	3.2283613	169.2221	168.2235	7.070386	32.87026
237	5.69151	3.2303026	170.4827	169.4761	7.069505	32.89238
238	5.68829	3.2324380	171.7495	170.7349	7.068816	32.91900
239	5.68632	3.2328317	173.0405	172.0178	7.068883	32.92473
240	5.68682	3.2335189	174.3011	173.2704	7.068490	32.93137
241	5.68456	3.2337629	175.5617	174.5230	7.068671	32.93572
242	5.68204	3.2339131	176.8436	175.7968	7.068933	32.93924
243	5.67983	3.2346192	178.1438	177.0887	7.068868	32.94874
244	5.67761	3.2354940	179.4531	178.3897	7.068714	32.96013
245	5.67665	3.2364063	180.7320	179.6605	7.068384	32.97074
246	5.67922	3.2382182	182.0321	180.9523	7.067148	32.98806
247	5.67897	3.2388184	183.3415	182.2534	7.066895	32.99443
248	5.67806	3.2393187	184.5748	183.4787	7.066774	33.00036
249	5.67655	3.2400751	185.7319	184.6285	7.066591	33.00981
250	5.67545	3.2406942	186.8770	185.7663	7.066430	33.01732
251	5.67379	3.2416882	188.0309	186.9128	7.066142	33.02961
252	5.67293	3.2418699	189.1547	188.0294	7.066178	33.03194
253	5.67202	3.2422828	190.3118	189.1791	7.066101	33.03693
254	5.67011	3.2428832	191.5115	190.3711	7.066050	33.04499
255	5.66895	3.2430149	192.7051	191.5571	7.066152	33.04702
256	5.66885	3.2431715	193.8837	192.7281	7.066109	33.04831
257	5.66875	3.2431719	195.0590	193.8958	7.066148	33.04783
258	5.66900	3.2433660	196.2588	195.0879	7.066043	33.04919
259	5.66800	3.2436727	197.4343	196.2558	7.066034	33.05306
260	5.66770	3.2438419	198.6278	197.4416	7.066010	33.05468
261	5.66719	3.2442112	199.8519	198.6578	7.065907	33.05874
262	5.66629	3.2445992	201.0729	199.8709	7.065843	33.06341
263	5.66538	3.2450060	202.2879	201.0781	7.065770	33.06829
264	5.66483	3.2451502	203.5090	202.2912	7.065791	33.06986
265	5.66457	3.2453944	204.7118	203.4863	7.065722	33.07227
266	5.66422	3.2455698	205.8535	204.6206	7.065699	33.07404
267	5.66377	3.2460392	206.9073	205.6676	7.065534	33.07927
268	5.66246	3.2465210	207.9640	206.7174	7.065467	33.08547
269	5.66221	3.2466152	209.0269	207.7734	7.065473	33.08626
270	5.66241	3.2463904	210.1110	208.8504	7.065591	33.08298
271	5.66312	3.2463532	211.2103	209.9426	7.065549	33.08133
272	5.66286	3.2466787	212.3158	211.0409	7.065435	33.08471
273	5.66246	3.2468479	213.4088	212.1268	7.065421	33.08648
274	5.66236	3.2469296	214.5111	213.2219	7.065416	33.08696
275	5.66241	3.2470362	215.6410	214.3445	7.065379	33.08755
276	5.66236	3.2472242	216.7799	215.4758	7.065313	33.08917
277	5.66140	3.2487069	217.9307	216.6192	7.064682	33.10629
278	5.65818	3.2501337	219.1153	217.7960	7.064360	33.12499
279	5.65652	3.2512665	220.2815	218.9546	7.063998	33.13885
280	5.65527	3.2517487	221.4328	220.0983	7.063927	33.14497
281	5.65431	3.2527066	222.5928	221.2507	7.063570	33.15616
282	5.65376	3.2528822	223.7620	222.4123	7.063573	33.15811
283	5.65376	3.2529326	224.9435	223.5859	7.063574	33.15810
284	5.65361	3.2533586	226.1493	224.7838	7.063397	33.16247
285	5.65340	3.2537595	227.3580	225.9845	7.063240	33.16660
286	5.65260	3.2542231	228.5670	227.1856	7.063124	33.17203
287	5.65245	3.2544363	229.7454	228.3562	7.063058	33.17401
288	5.65235	3.2545431	230.9420	229.5449	7.063042	33.17472
289	5.65235	3.2547750	232.1507	230.7456	7.062948	33.17675
290	5.65215	3.2550446	233.3809	231.9677	7.062860	33.17939
291	5.65200	3.2552015	234.6231	233.2017	7.062825	33.18070
292	5.65205	3.2555775	235.8835	234.4538	7.062651	33.18427
293	5.65144	3.2559598	237.1261	235.6881	7.062554	33.18858
294	5.65144	3.2560227	238.2131	236.7679	7.062546	33.18875
295	5.65200	3.2559289	238.6521	237.2040	7.062536	33.18693
296	5.65406	3.2562106	238.6072	237.1593	7.062134	33.18811
297	5.65476	3.2559539	238.6199	237.1720	7.062181	33.18451
298	5.65411	3.2558288	238.6421	237.1940	7.062328	33.18372
299	5.65330	3.2557286	238.6456	237.1975	7.062480	33.18338
300	5.65310	3.2558287	238.5914	237.1437	7.062451	33.18474
301	5.65823	3.2564108	238.2483	236.8029	7.061506	33.18644
302	5.65894	3.2559975	237.8655	236.4226	7.061627	33.18126
303	5.65637	3.2557156	237.2667	235.8278	7.062077	33.18090
304	5.65451	3.2557906	236.6404	235.2056	7.062253	33.18388
305	5.65401	3.2559594	235.9625	234.5322	7.062211	33.18662
306	5.65305	3.2558527	235.1932	233.7681	7.062367	33.18674
307	5.65310	3.2554706	234.3417	232.9222	7.062541	33.18279
308	5.65330	3.2552387	233.4569	232.0432	7.062618	33.18041
309	5.65325	3.2550256	232.5811	231.1732	7.062715	33.17848
310	5.65335	3.2549189	231.7174	230.3153	7.062739	33.17760
311	5.65345	3.2548623	230.8355	229.4391	7.062736	33.17730
312	5.65361	3.2546930	229.9292	228.5388	7.062785	33.17568
313	5.65396	3.2545862	228.9956	227.6114	7.062776	33.17459
314	5.65386	3.2543919	228.0772	226.6990	7.062870	33.17295
315	5.65361	3.2543916	227.1617	225.7896	7.062880	33.17364
316	5.65406	3.2540158	226.2585	224.8923	7.063000	33.16940
317	5.65461	3.2536963	225.3309	223.9708	7.063078	33.16570
318	5.65471	3.2534143	224.3789	223.0251	7.063191	33.16288
319	5.65486	3.2533139	223.4240	222.0764	7.063203	33.16207
320	5.65486	3.2531884	222.4507	221.1096	7.063247	33.16113
321	5.65532	3.2523495	221.4743	220.1395	7.063608	33.15169
322	5.65582	3.2518736	220.4829	219.1546	7.063772	33.14630
323	5.65612	3.2515854	219.4576	218.1361	7.063862	33.14326
324	5.65647	3.2508780	218.3962	217.0816	7.064165	33.13544
325	5.65778	3.2495763	217.2950	215.9876	7.064659	33.11999
326	5.65979	3.2489066	216.1818	214.8817	7.064736	33.11099
327	5.66065	3.2480055	215.0715	213.7786	7.065077	33.10052
328	5.66206	3.2472734	213.9551	212.6696	7.065260	33.09141
329	5.66266	3.2471041	212.8326	211.5543	7.065249	33.08946
330	5.66251	3.2469349	211.7101	210.4391	7.065330	33.08825
331	5.66261	3.2467845	210.5907	209.3270	7.065371	33.08700
332	5.66296	3.2464652	209.4561	208.1998	7.065469	33.08361
333	5.66377	3.2459646	208.3367	207.0877	7.065606	33.07772
334	5.66432	3.2458767	207.2294	205.9875	7.065558	33.07673
335	5.66437	3.2457513	206.1130	204.8784	7.065592	33.07581
336	5.66468	3.2453507	204.9874	203.7601	7.065738	33.07155
337	5.66493	3.2452503	203.8648	202.6448	7.065734	33.07072
338	5.66503	3.2451374	202.7303	201.5177	7.065755	33.06990
339	5.66498	3.2451058	201.6017	200.3963	7.065752	33.07015
340	5.66488	3.2450804	200.4911	199.2930	7.065752	33.07051
341	5.66473	3.2450051	199.3717	198.1808	7.065785	33.07036
342	5.66488	3.2447609	198.2400	197.0563	7.065868	33.06801
343	5.66528	3.2445792	197.1177	195.9412	7.065888	33.06612
344	5.66603	3.2442850	195.9950	194.8258	7.065923	33.06261
345	5.66634	3.2442596	194.8541	193.6922	7.065873	33.06259
346	5.66634	3.2439217	193.7406	192.5859	7.066024	33.05932
347	5.66689	3.2436150	192.6241	191.4766	7.066091	33.05586
348	5.66754	3.2434396	191.4894	190.3491	7.066076	33.05380
349	5.66825	3.2429766	190.3425	189.2096	7.066205	33.04845
350	5.66900	3.2425325	189.2047	188.0791	7.066318	33.04325
351	5.67051	3.2421633	188.0759	186.9575	7.066299	33.03816
352	5.67092	3.2419255	186.9625	185.8512	7.066348	33.03563
353	5.67288	3.2407689	185.8672	184.7629	7.066686	33.02118
354	5.67540	3.2399936	184.7476	183.6505	7.066755	33.01051
355	5.67671	3.2394246	183.6189	182.5290	7.066865	33.00336
356	5.67806	3.2386745	182.4810	181.3984	7.067063	32.99412
357	5.67922	3.2373871	181.3371	180.2617	7.067567	32.97901
358	5.67811	3.2356378	180.2114	179.1432	7.068594	32.96089
359	5.67786	3.2346633	179.4236	178.3604	7.069117	32.95052
360	5.67852	3.2343446	178.7726	177.7135	7.069188	32.94661
361	5.68078	3.2339634	177.8356	176.7825	7.069085	32.94055
362	5.68451	3.2335447	176.8528	175.8060	7.068821	32.93267
363	5.68934	3.2333196	175.8185	174.7781	7.068317	32.92592
364	5.69176	3.2332942	174.7689	173.7352	7.068007	32.92379
365	5.69307	3.2331628	173.7496	172.7224	7.067891	32.92153
366	5.69267	3.2328940	172.7456	171.7248	7.068058	32.91939
367	5.69201	3.2328188	171.7508	170.7362	7.068156	32.91967
368	5.68939	3.2322129	170.7102	169.7022	7.068773	32.91589
369	5.68919	3.2295846	169.6545	168.6532	7.070149	32.88694
370	5.69191	3.2281926	168.6261	167.6312	7.070516	32.86909
371	5.69196	3.2277118	167.6069	166.6185	7.070738	32.86411
372	5.69161	3.2271999	166.5907	165.6087	7.071027	32.85918
373	5.69554	3.2252780	165.5865	164.6108	7.071522	32.83416
374	5.70914	3.2225208	164.5370	163.5679	7.071254	32.79035
375	5.71931	3.2211611	163.4873	162.5248	7.070678	32.76565
376	5.72415	3.2205933	162.4437	161.4878	7.070351	32.75506
377	5.72667	3.2203374	161.4215	160.4719	7.070149	32.75023
378	5.72692	3.2203059	160.4080	159.4648	7.070112	32.75013
379	5.72909	3.2194702	159.4133	158.4763	7.070257	32.73910
380	5.73343	3.2188029	158.4032	157.4725	7.070045	32.72787
381	5.73781	3.2178614	157.3807	156.4565	7.069969	32.71351
382	5.74714	3.2168202	156.3310	155.4134	7.069332	32.69326
383	5.75344	3.2164085	155.2905	154.3793	7.068741	32.68303
384	5.75606	3.2162836	154.2802	153.3753	7.068458	32.67958
385	5.75839	3.2160838	153.2456	152.3472	7.068251	32.67560
386	5.75949	3.2160025	152.2324	151.3403	7.068133	32.67410
387	5.76040	3.2157841	151.2284	150.3425	7.068111	32.67126
388	5.76136	3.2155844	150.2028	149.3234	7.068073	32.66858
389	5.76166	3.2155654	149.1714	148.2983	7.068022	32.66858
390	5.76176	3.2156585	148.1490	147.2823	7.067938	32.67003
391	5.76202	3.2155523	147.1299	146.2695	7.067939	32.66909
392	5.76207	3.2155270	146.1012	145.2472	7.067923	32.66926
393	5.76247	3.2153647	145.0605	144.2129	7.067934	32.66755
394	5.76287	3.2152273	144.0320	143.1908	7.067932	32.66612
395	5.76419	3.2148594	143.0127	142.1778	7.067938	32.66120
396	5.76464	3.2148529	141.9933	141.1647	7.067862	32.66119
397	5.76424	3.2147030	140.9799	140.1576	7.067967	32.66039
398	5.76434	3.2144909	139.9699	139.1538	7.068043	32.65840
399	5.76439	3.2142912	138.9504	138.1406	7.068117	32.65660
400	5.76550	3.2138735	137.9309	137.1274	7.068174	32.65132
401	5.76721	3.2134247	136.9177	136.1203	7.068173	32.64511
402	5.77362	3.2113378	135.8923	135.1013	7.068442	32.61593
403	5.78346	3.2092887	134.8728	134.0880	7.068265	32.58387
404	5.79214	3.2082052	134.1213	133.3411	7.067735	32.56368
405	5.79487	3.2078688	133.6254	132.8484	7.067561	32.55751
406	5.79562	3.2079496	133.1386	132.3645	7.067414	32.55793
407	5.79583	3.2078809	132.5180	131.7477	7.067410	32.55727
408	5.79638	3.2077188	131.8213	131.0552	7.067410	32.55525
409	5.79694	3.2075008	131.1184	130.3567	7.067439	32.55260
410	5.79724	3.2072329	130.4338	129.6762	7.067525	32.54963
411	5.79759	3.2070833	129.7126	128.9594	7.067543	32.54796
412	5.79835	3.2064170	128.8879	128.1398	7.067777	32.54014
413	5.79865	3.2064292	128.0543	127.3113	7.067714	32.54040
414	5.79810	3.2065534	127.2053	126.4675	7.067699	32.54274
415	5.79774	3.2065532	126.3258	125.5934	7.067723	32.54351
416	5.79805	3.2060737	125.4402	124.7132	7.067915	32.53826
417	5.79921	3.2053203	124.5578	123.8362	7.068143	32.52910
418	5.79997	3.2050587	123.6845	122.9682	7.068166	32.52585
419	5.79961	3.2046477	122.8172	122.1061	7.068404	32.52199
420	5.79885	3.2043923	121.9469	121.2412	7.068611	32.52028
421	5.79709	3.2035832	121.0735	120.3731	7.069232	32.51331
422	5.79477	3.2031848	120.1760	119.4810	7.069708	32.51150
423	5.79371	3.2030103	119.2751	118.5856	7.069910	32.51100
424	5.79290	3.2027052	118.3440	117.6601	7.070148	32.50880
425	5.79113	3.2022819	117.3945	116.7164	7.070567	32.50620
426	5.78911	3.2018648	116.4055	115.7334	7.071012	32.50393
427	5.78795	3.2013420	115.4254	114.7592	7.071407	32.49965
428	5.78820	3.2002844	114.4424	113.7821	7.071904	32.48799
429	5.79865	3.1984992	113.4594	112.8051	7.071513	32.45835
430	5.83426	3.1958998	112.4795	111.8311	7.068416	32.39545
431	5.85276	3.1952093	111.4783	110.8360	7.066453	32.37047
432	5.86150	3.1947303	110.4740	109.8377	7.065592	32.35721
433	5.86595	3.1939220	109.4728	108.8426	7.065436	32.34437
434	5.86914	3.1933810	108.4716	107.8474	7.065298	32.33574
435	5.87076	3.1925294	107.4763	106.8581	7.065516	32.32513
436	5.88380	3.1897457	106.4903	105.8779	7.065315	32.28193
437	5.89458	3.1874225	105.4982	104.8918	7.065157	32.24610
438	5.90101	3.1853173	104.4999	103.8996	7.065426	32.21687
439	5.92126	3.1843111	103.4864	102.8920	7.063405	32.18682
440	5.95038	3.1845339	102.4730	101.8847	7.059646	32.16213
441	5.97830	3.1838692	101.4778	100.8955	7.056496	32.12867
442	6.01005	3.1839865	100.5343	99.9577	7.052471	32.10035
443	6.02568	3.1837998	99.6275	99.0562	7.050607	32.08391
444	6.02888	3.1835637	98.8544	98.2877	7.050314	32.07862
445	6.03091	3.1836565	98.1271	97.5648	7.049998	32.07808
446	6.04264	3.1833396	97.3814	96.8236	7.048689	32.06381
447	6.06158	3.1838544	96.5660	96.0130	7.046057	32.05204
448	6.08145	3.1846795	95.6802	95.1326	7.043151	32.04290
449	6.09670	3.1844804	94.8342	94.2915	7.041344	32.02669
450	6.13760	3.1866900	93.9729	93.4353	7.035130	32.01313
451	6.18286	3.1882231	93.1024	92.5701	7.028731	31.98796
452	6.22323	3.1905081	92.2166	91.6895	7.022562	31.97579
453	6.24981	3.1890106	91.3251	90.8033	7.020025	31.93464
454	6.24537	3.1852287	90.4211	89.9047	7.022476	31.89729
455	6.23445	3.1830249	89.5141	89.0030	7.024925	31.88352
456	6.23583	3.1828260	88.6102	88.1044	7.024836	31.88045
457	6.24573	3.1814976	87.7122	87.2118	7.024269	31.85687
458	6.24052	3.1787861	86.8053	86.3102	7.026272	31.83211
459	6.23711	3.1782399	85.8953	85.4057	7.026953	31.82968
460	6.23802	3.1774829	84.9975	84.5131	7.027204	31.82085
461	6.24660	3.1767445	84.0632	83.5844	7.026499	31.80509
462	6.26109	3.1776062	83.1286	82.6553	7.024249	31.80154
463	6.29458	3.1795658	82.2005	81.7326	7.019095	31.79240
464	6.31932	3.1802105	81.2812	80.8188	7.015695	31.77689
465	6.34048	3.1814075	80.3560	79.8990	7.012458	31.77083
466	6.35905	3.1821827	79.4335	78.9820	7.009757	31.76253
467	6.36585	3.1823748	78.5114	78.0653	7.008802	31.75875
468	6.37942	3.1841867	77.5709	77.1302	7.006196	31.76658
469	6.40030	3.1849746	76.6335	76.1984	7.003207	31.75627
470	6.42371	3.1863834	75.6838	75.2542	6.999598	31.75048
471	6.45257	3.1871962	74.7403	74.3162	6.995622	31.73305
472	6.48037	3.1885308	73.8059	73.3873	6.991518	31.72237
473	6.51759	3.1902382	72.8714	72.4583	6.986076	31.70706
474	6.55371	3.1912875	71.9340	71.5263	6.981106	31.68555
475	6.58230	3.1936667	70.9965	70.5943	6.976398	31.68566
476	6.66174	3.1997579	70.0529	69.6562	6.963643	31.67943
477	6.74758	3.2033645	69.1033	68.7121	6.951381	31.64010
478	6.79139	3.2046144	68.1384	67.7529	6.945418	31.61383
479	6.80199	3.2033011	67.1825	66.8025	6.944758	31.59017
480	6.79610	3.2020256	66.2146	65.8403	6.946083	31.58211
481	6.79971	3.2021621	65.2589	64.8901	6.945555	31.58072
482	6.81032	3.2027029	64.2999	63.9367	6.943981	31.57732
483	6.82351	3.2033060	63.3259	62.9684	6.942062	31.57223
484	6.84545	3.2037721	62.3578	62.0059	6.939149	31.55760
485	6.86466	3.2044747	61.3229	60.9770	6.936451	31.54810
486	6.90346	3.2064591	60.3124	59.9723	6.930753	31.53459
487	6.94698	3.2078651	59.3109	58.9766	6.924777	31.51049
488	6.97184	3.2083812	58.3033	57.9748	6.921497	31.49381
489	6.97958	3.2085178	57.3019	56.9792	6.920475	31.48868
490	6.98659	3.2089968	56.2974	55.9804	6.919373	31.48794
491	7.00119	3.2098369	55.2837	54.9726	6.917179	31.48419
492	7.01542	3.2104093	54.2791	53.9738	6.915160	31.47785
493	7.03014	3.2118598	53.2594	52.9600	6.912657	31.48063
494	7.07394	3.2155530	52.2275	51.9340	6.905560	31.48117
495	7.15220	3.2199082	51.2077	50.9201	6.894017	31.45744
496	7.20647	3.2221394	50.1849	49.9031	6.886407	31.43263
497	7.24351	3.2238848	49.1560	48.8801	6.881107	31.41828
498	7.29178	3.2262543	48.1117	47.8418	6.874171	31.40048
499	7.34477	3.2280441	47.0525	46.7886	6.866961	31.37221
500	7.38451	3.2286986	45.9992	45.7414	6.861886	31.34376
501	7.40591	3.2288166	44.9489	44.6971	6.859256	31.32616
502	7.42486	3.2284042	43.9018	43.6559	6.857174	31.30510
503	7.44639	3.2267003	42.8484	42.6086	6.855399	31.26786
504	7.47014	3.2268370	41.7801	41.5463	6.852484	31.24842
505	7.49417	3.2270735	40.7083	40.4807	6.849490	31.22981
506	7.51421	3.2273350	39.6034	39.3820	6.846960	31.21510
507	7.53752	3.2274904	38.5014	38.2864	6.844092	31.19631
508	7.54932	3.2277270	37.4207	37.2117	6.842556	31.18874
509	7.57202	3.2280759	36.3337	36.1309	6.839673	31.17260
510	7.60554	3.2284995	35.2409	35.0443	6.835471	31.14758
511	7.62870	3.2287360	34.1265	33.9362	6.832590	31.12988
512	7.64960	3.2299150	33.0094	32.8254	6.829535	31.12427
513	7.78545	3.2346954	31.9103	31.7325	6.811203	31.05448
514	7.90794	3.2378418	30.8174	30.6458	6.795282	30.97956
515	7.95728	3.2392967	29.7245	29.5591	6.788787	30.95177
516	7.99326	3.2413019	28.6286	28.4693	6.783615	30.94165
517	8.05379	3.2437887	27.5569	27.4037	6.775351	30.91493
518	8.12659	3.2458821	26.6009	26.4531	6.765854	30.87328
519	8.16977	3.2470195	25.6664	25.5239	6.760270	30.84768
520	8.19390	3.2477507	24.6983	24.5611	6.757102	30.83460
521	8.21542	3.2483506	23.7150	23.5833	6.754300	30.82246
522	8.27317	3.2499762	22.7133	22.5873	6.746813	30.78934
523	8.38631	3.2508068	21.7117	21.5913	6.733268	30.69965
524	8.51282	3.2513244	20.6826	20.5679	6.718353	30.59556
525	8.60906	3.2511041	19.6474	19.5386	6.707306	30.51048
526	8.74979	3.2500950	18.5789	18.4760	6.691507	30.37944
527	8.86756	3.2501559	17.4890	17.3922	6.677918	30.27984
528	8.92404	3.2503865	16.4204	16.3295	6.671315	30.23456
529	9.00392	3.2512613	15.3517	15.2668	6.661760	30.17617
530	9.13681	3.2519916	14.3166	14.2374	6.646235	30.07172
531	9.27797	3.2530913	13.4916	13.4170	6.629666	29.96464
532	9.43256	3.2543663	12.7821	12.7115	6.611560	29.84874
533	9.53391	3.2554792	12.0787	12.0120	6.599605	29.77607
534	9.61317	3.2577008	11.3755	11.3127	6.589703	29.73318
535	9.72378	3.2609499	10.6538	10.5950	6.575865	29.67492
536	9.91778	3.2662112	9.9261	9.8714	6.551902	29.56875
537	10.15629	3.2725792	9.1863	9.1356	6.522677	29.43823
538	10.36726	3.2767617	8.3887	8.3424	6.497591	29.30948
539	10.44089	3.2768987	7.5058	7.4645	6.489399	29.25197
540	10.44010	3.2776014	6.5984	6.5620	6.489186	29.25991
541	10.48962	3.2809968	5.6605	5.6293	6.482342	29.25406
542	10.57776	3.2833066	4.7197	4.6937	6.471709	29.20658
543	10.60189	3.2837394	3.7516	3.7310	6.468872	29.19193
544	10.59187	3.2831488	2.7833	2.7680	6.470193	29.19450
545	10.60411	3.2843040	1.7571	1.7474	6.468369	29.19649
546	10.62843	3.2841402	0.7919	0.7876	6.465754	29.17582
547	10.64564	2.2257586	0.1527	0.1518	6.892240	19.01090
548	10.62205	1.1859570	0.1130	0.1124	7.318741	9.59791
549	10.54472	1.2208717	0.1129	0.1123	7.316587	9.92460
550	10.51625	0.5149869	0.1099	0.1093	7.604385	3.93011
551	10.48167	0.4431081	0.1128	0.1122	7.638427	3.35119
552	10.43545	0.3380995	0.1127	0.1121	7.687141	2.51684
553	10.39596	0.3350190	0.1094	0.1088	7.695275	2.49520
554	10.36681	0.3083513	0.1093	0.1087	7.710677	2.28689
555	10.33944	0.2459867	0.1093	0.1087	7.739355	1.80181
556	10.31310	0.2182626	0.1062	0.1056	7.754562	1.58922
