Scan Count	Temperature [ITS-90, deg C]	Conductivity [S/m]	Pressure, Strain Gauge [db]	Depth [salt water, m]	Oxygen Saturation, Weiss [ml/l]	Salinity, Practical [PSU]
1	6.22700	0.0080156	-0.1070	-0.1064	8.648689	0.05808
2	6.22802	0.0080125	-0.1099	-0.1093	8.648468	0.05806
3	6.22904	0.0080125	-0.1067	-0.1061	8.648245	0.05806
4	6.22981	0.0080156	-0.1007	-0.1001	8.648077	0.05808
5	6.23012	0.0080125	-0.1037	-0.1031	8.648012	0.05806
6	6.22767	0.0080156	-0.1068	-0.1062	8.648544	0.05808
7	6.22624	0.0080125	-0.1101	-0.1094	8.648857	0.05806
8	6.22644	0.0080063	-0.1006	-0.1000	8.648815	0.05802
9	6.22721	0.0080032	-0.1037	-0.1031	8.648649	0.05799
10	6.22792	0.0080032	-0.1069	-0.1063	8.648494	0.05799
11	6.22853	0.0080063	-0.1068	-0.1063	8.648359	0.05801
12	6.22864	0.0080032	-0.1069	-0.1063	8.648338	0.05799
13	6.22864	0.0080063	-0.1070	-0.1064	8.648337	0.05801
14	6.22813	0.0080032	-0.1070	-0.1064	8.648449	0.05799
15	6.22583	0.0080218	-0.1071	-0.1065	8.648942	0.05813
16	6.22328	0.0080218	-0.0979	-0.0974	8.649498	0.05813
17	6.22221	0.0080032	-0.1070	-0.1064	8.649740	0.05800
18	6.22002	0.0080156	-0.1039	-0.1033	8.650213	0.05809
19	6.21839	0.0080218	-0.1072	-0.1066	8.650566	0.05814
20	6.21742	0.0080156	-0.1070	-0.1064	8.650780	0.05810
21	6.21579	0.0080125	-0.1008	-0.1003	8.651137	0.05807
22	6.21426	0.0080063	-0.1010	-0.1004	8.651474	0.05803
23	6.21257	0.0080218	-0.1040	-0.1035	8.651835	0.05815
24	6.21191	0.0080032	-0.0950	-0.0944	8.651987	0.05801
25	6.20804	0.0080156	-0.1040	-0.1035	8.652827	0.05811
26	6.19723	0.0080125	-0.1041	-0.1035	8.655188	0.05810
27	6.18322	0.0080063	-0.1010	-0.1004	8.658252	0.05807
28	6.16687	0.0080125	-0.1041	-0.1035	8.661823	0.05814
29	6.15012	0.0080156	-0.0979	-0.0974	8.665486	0.05818
30	6.13256	0.0080033	-0.1008	-0.1003	8.669335	0.05811
31	6.11191	0.0080063	-0.1010	-0.1004	8.673859	0.05816
32	6.08913	0.0080125	-0.1010	-0.1004	8.678852	0.05824
33	6.06793	0.0080125	-0.1040	-0.1035	8.683504	0.05826
34	6.05026	0.0080063	-0.1041	-0.1035	8.687390	0.05824
35	6.02919	0.0080033	-0.1009	-0.1004	8.692025	0.05824
36	6.00691	0.0080063	-0.0979	-0.0973	8.696926	0.05830
37	5.99641	0.0080125	-0.1008	-0.1003	8.699236	0.05835
38	5.99474	0.0080156	-0.1011	-0.1006	8.699604	0.05838
39	5.99397	0.0080033	-0.1103	-0.1097	8.699777	0.05829
40	5.98378	0.0080033	-0.0979	-0.0974	8.702023	0.05830
41	5.96421	0.0080002	-0.1042	-0.1036	8.706339	0.05830
42	5.93949	0.0080033	-0.0983	-0.0977	8.711795	0.05836
43	5.91761	0.0080002	-0.1040	-0.1035	8.716630	0.05836
44	5.90116	0.0079940	-0.1011	-0.1005	8.720270	0.05834
45	5.89236	0.0080002	-0.1011	-0.1006	8.722215	0.05840
46	5.88922	0.0079940	-0.0980	-0.0975	8.722912	0.05836
47	5.89200	0.0079940	-0.0979	-0.0974	8.722296	0.05835
48	5.90000	0.0080002	-0.1011	-0.1005	8.720525	0.05839
49	5.90693	0.0080033	-0.1071	-0.1065	8.718990	0.05840
50	5.91250	0.0080002	-0.0981	-0.0976	8.717760	0.05837
51	5.91756	0.0079940	-0.1010	-0.1004	8.716644	0.05832
52	5.92207	0.0080002	-0.1010	-0.1004	8.715645	0.05836
53	5.91766	0.0080033	-0.0982	-0.0976	8.716617	0.05839
54	5.90789	0.0079940	-0.0979	-0.0974	8.718781	0.05833
55	5.89934	0.0079909	-0.0979	-0.0973	8.720674	0.05832
56	5.89357	0.0080033	-0.0950	-0.0945	8.721945	0.05842
57	5.89155	0.0080002	-0.1040	-0.1035	8.722394	0.05840
58	5.89352	0.0079940	-0.1011	-0.1006	8.721960	0.05835
59	5.89959	0.0090898	-0.0889	-0.0885	8.720153	0.06647
60	5.95874	1.8178768	-0.0004	-0.0004	7.773185	17.41167
61	6.20233	2.5334233	0.1397	0.1389	7.360797	24.84748
62	6.39375	2.6382168	0.3167	0.3149	7.280089	25.83333
63	6.52159	2.6391825	0.4692	0.4666	7.261959	25.74712
64	6.60189	2.6393208	0.5881	0.5848	7.250842	25.68820
65	6.65019	2.6341410	0.6519	0.6484	7.246818	25.59665
66	6.67600	2.6318329	0.6520	0.6484	7.244432	25.55274
67	6.69338	2.6333423	0.6519	0.6483	7.241287	25.55589
68	6.70447	2.6373693	0.6946	0.6908	7.237743	25.59056
69	6.71097	2.6385731	0.7799	0.7756	7.236249	25.59852
70	6.71561	2.6371840	0.8623	0.8576	7.236311	25.58021
71	6.71742	2.6313931	0.9205	0.9154	7.238971	25.51711
72	6.71009	2.6310578	0.9324	0.9273	7.240145	25.51898
73	6.67461	2.6310060	0.8685	0.8637	7.245044	25.54487
74	6.63777	2.6323827	0.7586	0.7544	7.249413	25.58709
75	6.61990	2.6357381	0.6856	0.6818	7.250176	25.63634
76	6.63401	2.6397373	0.7189	0.7150	7.246221	25.66852
77	6.65920	2.6382957	0.8136	0.8091	7.243490	25.63422
78	6.67698	2.6329318	0.8501	0.8454	7.243749	25.56366
79	6.68394	2.6314165	0.8656	0.8608	7.243555	25.54230
80	6.66740	2.6310350	0.8227	0.8182	7.246020	25.55057
81	6.64550	2.6336031	0.7128	0.7089	7.247735	25.59438
82	6.63211	2.6361777	0.6124	0.6090	7.248275	25.63194
83	6.64375	2.6411674	0.6092	0.6058	7.244161	25.67656
84	6.66915	2.6419953	0.6763	0.6725	7.240261	25.66635
85	6.69111	2.6407501	0.7890	0.7846	7.237878	25.63658
86	6.70524	2.6339207	0.8713	0.8665	7.239372	25.55314
87	6.71174	2.6315725	0.9233	0.9182	7.239660	25.52324
88	6.69369	2.6322145	0.9326	0.9274	7.241817	25.54352
89	6.65956	2.6324346	0.9172	0.9121	7.246394	25.57132
90	6.63180	2.6340602	0.8624	0.8576	7.249390	25.60944
91	6.61553	2.6344826	0.7771	0.7728	7.251413	25.62616
92	6.62078	2.6365655	0.7038	0.7000	7.249638	25.64453
93	6.64503	2.6391641	0.6824	0.6787	7.244995	25.65415
94	6.66879	2.6400613	0.6946	0.6908	7.241284	25.64596
95	6.68652	2.6400901	0.7313	0.7273	7.238838	25.63299
96	6.69936	2.6393489	0.7862	0.7818	7.237451	25.61546
97	6.70679	2.6352398	0.8227	0.8182	7.238496	25.56607
98	6.70875	2.6331051	0.8350	0.8304	7.239300	25.54184
99	6.70860	2.6317749	0.8290	0.8244	7.239989	25.52778
100	6.69988	2.6334175	0.8044	0.8000	7.240360	25.55179
101	6.68714	2.6371958	0.7803	0.7760	7.240209	25.60161
102	6.68446	2.6395285	0.7740	0.7697	7.239404	25.62852
103	6.69483	2.6405879	0.7922	0.7878	7.237450	25.63207
104	6.70674	2.6388510	0.8413	0.8366	7.236690	25.60462
105	6.71402	2.6333133	0.8746	0.8698	7.238474	25.54013
106	6.71660	2.6306125	0.8654	0.8607	7.239475	25.50942
107	6.69596	2.6307861	0.8138	0.8093	7.242221	25.52664
108	6.66204	2.6347715	0.7068	0.7029	7.244873	25.59451
109	6.64297	2.6384637	0.6428	0.6393	7.245631	25.64823
110	6.65699	2.6415610	0.6916	0.6878	7.242148	25.67081
111	6.68080	2.6402812	0.7922	0.7878	7.239528	25.63928
112	6.69730	2.6336721	0.8625	0.8577	7.240587	25.55641
113	6.70179	2.6330820	0.8746	0.8698	7.240268	25.54677
114	6.67425	2.6339789	0.8746	0.8698	7.243598	25.57686
115	6.63890	2.6340948	0.8319	0.8273	7.248395	25.60451
116	6.61857	2.6352116	0.7709	0.7667	7.250627	25.63168
117	6.61002	2.6350323	0.7283	0.7243	7.251892	25.63618
118	6.61604	2.6363688	0.7160	0.7121	7.250389	25.64597
119	6.64179	2.6392973	0.7527	0.7486	7.245375	25.65798
120	6.66580	2.6380526	0.8045	0.8001	7.242707	25.62670
121	6.67987	2.6339904	0.8411	0.8365	7.242820	25.57281
122	6.68580	2.6329028	0.8441	0.8394	7.242552	25.55678
123	6.66848	2.6331864	0.8044	0.8000	7.244788	25.57274
124	6.64436	2.6356279	0.7556	0.7514	7.246871	25.61684
125	6.63000	2.6371095	0.7465	0.7424	7.248098	25.64343
126	6.64462	2.6389847	0.7770	0.7727	7.245144	25.65251
127	6.66673	2.6354715	0.8291	0.8245	7.243879	25.59843
128	6.68080	2.6327409	0.8564	0.8517	7.243321	25.55877
129	6.67740	2.6325732	0.8655	0.8607	7.243873	25.55952
130	6.64921	2.6326140	0.8442	0.8396	7.247726	25.58099
131	6.62469	2.6339503	0.7589	0.7547	7.250421	25.61362
132	6.61084	2.6350843	0.6856	0.6819	7.251752	25.63613
133	6.60920	2.6366467	0.6917	0.6879	7.251189	25.65407
134	6.63396	2.6395058	0.7589	0.7547	7.246345	25.66607
135	6.66291	2.6396213	0.8259	0.8213	7.242314	25.64560
136	6.68255	2.6353152	0.8596	0.8548	7.241786	25.58494
137	6.69359	2.6329838	0.8653	0.8606	7.241443	25.55183
138	6.68657	2.6326888	0.8533	0.8486	7.242554	25.55392
139	6.65910	2.6332038	0.7984	0.7940	7.246068	25.57992
140	6.63818	2.6349510	0.7557	0.7515	7.248061	25.61423
141	6.62788	2.6355181	0.7525	0.7484	7.249191	25.62799
142	6.62603	2.6352867	0.7802	0.7759	7.249563	25.62690
143	6.63870	2.6345808	0.8016	0.7972	7.248178	25.60987
144	6.65153	2.6328511	0.8319	0.8273	7.247287	25.58180
145	6.65652	2.6322495	0.8199	0.8153	7.246903	25.57165
146	6.65096	2.6320240	0.8016	0.7972	7.247781	25.57340
147	6.63200	2.6326372	0.7833	0.7790	7.250078	25.59411
148	6.61934	2.6334529	0.7924	0.7881	7.251409	25.61229
149	6.61702	2.6337017	0.8259	0.8214	7.251603	25.61667
150	6.61882	2.6325217	0.8473	0.8426	7.251951	25.60270
151	6.62078	2.6315501	0.8472	0.8426	7.252172	25.59085
152	6.62361	2.6312262	0.8380	0.8334	7.251945	25.58528
153	6.61831	2.6311858	0.7984	0.7940	7.252695	25.58882
154	6.60616	2.6310876	0.7528	0.7486	7.254416	25.59687
155	6.59592	2.6313189	0.7284	0.7244	7.255708	25.60701
156	6.59103	2.6322154	0.7343	0.7303	7.255928	25.62025
157	6.59247	2.6329036	0.7618	0.7576	7.255382	25.62653
158	6.60045	2.6331870	0.7953	0.7909	7.254142	25.62358
159	6.61651	2.6326547	0.8230	0.8185	7.252202	25.60586
160	6.62922	2.6312146	0.8351	0.8305	7.251179	25.58096
161	6.63401	2.6308445	0.8471	0.8425	7.250707	25.57343
162	6.63576	2.6304571	0.8288	0.8243	7.250661	25.56799
163	6.62752	2.6302952	0.8320	0.8275	7.251877	25.57241
164	6.61321	2.6302549	0.8381	0.8335	7.253867	25.58266
165	6.59757	2.6304863	0.8381	0.8335	7.255904	25.59683
166	6.58450	2.6305095	0.8199	0.8153	7.257692	25.60686
167	6.57252	2.6304576	0.7587	0.7546	7.259368	25.61529
168	6.56316	2.6305675	0.7132	0.7092	7.260601	25.62349
169	6.55781	2.6313193	0.6887	0.6849	7.260957	25.63555
170	6.55432	2.6318340	0.7251	0.7211	7.261179	25.64367
171	6.57139	2.6341706	0.8016	0.7972	7.257646	25.65587
172	6.60734	2.6349108	0.8563	0.8516	7.252324	25.63683
173	6.63478	2.6321225	0.8840	0.8791	7.249957	25.58649
174	6.65348	2.6310872	0.8749	0.8701	7.247907	25.56148
175	6.65214	2.6307692	0.8471	0.8425	7.248251	25.55909
176	6.63097	2.6308965	0.7863	0.7820	7.251098	25.57628
177	6.61259	2.6319896	0.7558	0.7516	7.253075	25.60170
178	6.60261	2.6330713	0.7529	0.7487	7.253902	25.62074
179	6.59762	2.6332622	0.7739	0.7696	7.254493	25.62651
180	6.60770	2.6332332	0.8107	0.8063	7.253121	25.61864
181	6.62737	2.6326315	0.8289	0.8244	7.250719	25.59749
182	6.63813	2.6313186	0.8228	0.8183	7.249901	25.57543
183	6.64303	2.6307345	0.8199	0.8153	7.249522	25.56554
184	6.63638	2.6305900	0.7952	0.7909	7.250509	25.56896
185	6.61831	2.6313072	0.7709	0.7667	7.252633	25.59013
186	6.60693	2.6324350	0.7710	0.7668	7.253629	25.61069
187	6.60565	2.6333142	0.8014	0.7970	7.253363	25.62105
188	6.61548	2.6335224	0.8382	0.8336	7.251906	25.61590
189	6.62964	2.6315847	0.8471	0.8425	7.250936	25.58461
190	6.63798	2.6307693	0.8322	0.8276	7.250199	25.56967
191	6.63684	2.6304570	0.8076	0.8031	7.250512	25.56719
192	6.62073	2.6315038	0.7618	0.7577	7.252201	25.59043
193	6.60801	2.6329498	0.7314	0.7274	7.253220	25.61541
194	6.60724	2.6339215	0.7558	0.7517	7.252836	25.62637
195	6.62356	2.6351595	0.7954	0.7910	7.249967	25.62738
196	6.64807	2.6360388	0.8167	0.8122	7.246155	25.61843
197	6.66704	2.6365652	0.8259	0.8213	7.243286	25.60988
198	6.68023	2.6354888	0.8320	0.8275	7.242016	25.58853
199	6.68549	2.6331573	0.8227	0.8182	7.242466	25.55973
200	6.68626	2.6321047	0.8015	0.7971	7.242889	25.54793
201	6.68642	2.6313934	0.7801	0.7758	7.243225	25.54024
202	6.67626	2.6330417	0.7862	0.7819	7.243791	25.56539
203	6.66621	2.6348988	0.8076	0.8031	7.244238	25.59271
204	6.66044	2.6340021	0.8259	0.8214	7.245482	25.58744
205	6.65735	2.6314977	0.8321	0.8276	7.247169	25.56300
206	6.65549	2.6303759	0.8167	0.8122	7.247988	25.55241
207	6.64328	2.6304049	0.8016	0.7972	7.249653	25.56183
208	6.62696	2.6316772	0.7618	0.7577	7.251256	25.58763
209	6.61676	2.6331232	0.7496	0.7455	7.251929	25.61071
210	6.61501	2.6345347	0.7710	0.7668	7.251457	25.62710
211	6.62124	2.6355992	0.8077	0.8032	7.250064	25.63381
212	6.63375	2.6358595	0.8227	0.8182	7.248213	25.62722
213	6.65214	2.6342798	0.8287	0.8241	7.246482	25.59660
214	6.66137	2.6324577	0.8321	0.8276	7.246133	25.57025
215	6.66874	2.6318619	0.8076	0.8031	7.245419	25.55840
216	6.66765	2.6327410	0.8016	0.7972	7.245126	25.56860
217	6.66090	2.6337302	0.8014	0.7970	7.245555	25.58420
218	6.65580	2.6339096	0.8227	0.8182	7.246166	25.58991
219	6.65544	2.6326023	0.8198	0.8153	7.246874	25.57622
220	6.65503	2.6312838	0.8226	0.8181	7.247595	25.56245
221	6.65384	2.6305378	0.8137	0.8092	7.248133	25.55537
222	6.64215	2.6303471	0.7802	0.7759	7.249837	25.56207
223	6.62320	2.6309544	0.7559	0.7518	7.252138	25.58271
224	6.60951	2.6325449	0.7497	0.7456	7.253219	25.60995
225	6.60606	2.6341182	0.7680	0.7638	7.252899	25.62935
226	6.61069	2.6349108	0.7894	0.7850	7.251862	25.63435
227	6.61887	2.6347429	0.8076	0.8031	7.250822	25.62643
228	6.62886	2.6332619	0.8259	0.8214	7.250196	25.60312
229	6.63535	2.6324811	0.8319	0.8273	7.249697	25.58992
230	6.64055	2.6320241	0.8290	0.8244	7.249212	25.58116
231	6.64503	2.6315499	0.8260	0.8215	7.248835	25.57275
232	6.64467	2.6307345	0.8318	0.8272	7.249296	25.56430
233	6.63566	2.6305380	0.8167	0.8122	7.250634	25.56894
234	6.62104	2.6304340	0.8045	0.8001	7.252699	25.57875
235	6.60899	2.6303474	0.7801	0.7759	7.254400	25.58683
236	6.60107	2.6304863	0.7711	0.7668	7.255421	25.59424
237	6.59752	2.6316428	0.7587	0.7546	7.255325	25.60927
238	6.59767	2.6331349	0.7772	0.7729	7.254550	25.62511
239	6.59978	2.6338117	0.8076	0.8031	7.253919	25.63076
240	6.60184	2.6334704	0.8166	0.8121	7.253808	25.62556
241	6.60240	2.6326317	0.8199	0.8153	7.254154	25.61617
242	6.60282	2.6321979	0.8197	0.8152	7.254316	25.61122
243	6.60446	2.6316659	0.8105	0.8061	7.254358	25.60430
244	6.60709	2.6314461	0.7953	0.7909	7.254108	25.59999
245	6.60951	2.6313940	0.7894	0.7850	7.253801	25.59763
246	6.61033	2.6317236	0.7894	0.7850	7.253521	25.60054
247	6.61033	2.6322788	0.7923	0.7880	7.253241	25.60647
248	6.61110	2.6328514	0.7984	0.7940	7.252846	25.61202
249	6.61249	2.6330307	0.7984	0.7940	7.252564	25.61290
250	6.61507	2.6329844	0.8137	0.8092	7.252233	25.61047
251	6.61939	2.6329786	0.8073	0.8029	7.251641	25.60718
252	6.62438	2.6330133	0.8135	0.8090	7.250937	25.60381
253	6.63010	2.6328455	0.8195	0.8150	7.250236	25.59775
254	6.63453	2.6321630	0.8288	0.8243	7.249971	25.58714
255	6.63453	2.6314690	0.8260	0.8215	7.250321	25.57972
256	6.63221	2.6311163	0.8167	0.8122	7.250817	25.57769
257	6.62788	2.6308156	0.8045	0.8000	7.251564	25.57771
258	6.62083	2.6306942	0.7923	0.7880	7.252596	25.58169
259	6.61373	2.6306480	0.7649	0.7607	7.253596	25.58651
260	6.60879	2.6310818	0.7618	0.7577	7.254057	25.59484
261	6.60683	2.6317526	0.7647	0.7605	7.253988	25.60347
262	6.60709	2.6324350	0.7770	0.7727	7.253608	25.61058
263	6.60714	2.6330712	0.7862	0.7818	7.253280	25.61734
264	6.60740	2.6336265	0.8045	0.8001	7.252964	25.62308
265	6.61105	2.6339794	0.8227	0.8181	7.252284	25.62411
266	6.61934	2.6340950	0.8378	0.8332	7.251086	25.61914
267	6.63015	2.6339792	0.8595	0.8548	7.249658	25.60981
268	6.64076	2.6329264	0.8654	0.8607	7.248730	25.59063
269	6.64318	2.6315557	0.8563	0.8516	7.249088	25.57418
270	6.64019	2.6302662	0.8257	0.8212	7.250148	25.56265
271	6.62531	2.6298616	0.7801	0.7758	7.252399	25.56945
272	6.60287	2.6304862	0.7160	0.7121	7.255172	25.59291
273	6.58537	2.6325856	0.6884	0.6847	7.256519	25.62847
274	6.57668	2.6336210	0.7131	0.7092	7.257193	25.64605
275	6.58728	2.6366700	0.7770	0.7727	7.254194	25.67072
276	6.62057	2.6388749	0.8226	0.8181	7.248503	25.66933
277	6.65008	2.6370283	0.8471	0.8425	7.245381	25.62749
278	6.66683	2.6335624	0.8532	0.8485	7.244826	25.57796
279	6.67951	2.6315496	0.8410	0.8363	7.244097	25.54703
280	6.67425	2.6311969	0.8197	0.8152	7.244996	25.54719
281	6.65338	2.6314168	0.7984	0.7940	7.247754	25.56511
282	6.63154	2.6328512	0.7923	0.7879	7.250034	25.59674
283	6.61965	2.6344305	0.7983	0.7939	7.250873	25.62251
284	6.61589	2.6347719	0.8014	0.7970	7.251218	25.62897
285	6.61378	2.6351306	0.7951	0.7907	7.251327	25.63439
286	6.61702	2.6347950	0.7982	0.7938	7.251050	25.62837
287	6.61918	2.6337306	0.7891	0.7848	7.251290	25.61538
288	6.61887	2.6337826	0.7801	0.7759	7.251306	25.61617
289	6.61965	2.6355472	0.7802	0.7759	7.250309	25.63446
290	6.62335	2.6364845	0.8044	0.8000	7.249327	25.64170
291	6.63674	2.6366175	0.8439	0.8393	7.247421	25.63308
292	6.65132	2.6349799	0.8471	0.8425	7.246243	25.60468
293	6.66013	2.6332617	0.8471	0.8424	7.245898	25.57975
294	6.66353	2.6319892	0.8196	0.8151	7.246071	25.56364
295	6.64864	2.6318332	0.7708	0.7666	7.248195	25.57310
296	6.62958	2.6332388	0.7220	0.7180	7.250106	25.60237
297	6.61661	2.6352405	0.7067	0.7029	7.250880	25.63348
298	6.61234	2.6366756	0.7646	0.7604	7.250744	25.65200
299	6.63046	2.6396621	0.8410	0.8364	7.246749	25.67033
300	6.65951	2.6399224	0.8776	0.8728	7.242630	25.65134
301	6.67863	2.6359633	0.8836	0.8787	7.241998	25.59477
302	6.69101	2.6334002	0.8775	0.8727	7.241588	25.55819
303	6.68503	2.6330301	0.8288	0.8242	7.242594	25.55872
304	6.65910	2.6333426	0.7586	0.7544	7.245997	25.58142
305	6.63803	2.6355759	0.6884	0.6847	7.247766	25.62105
306	6.62649	2.6370285	0.6764	0.6727	7.248619	25.64521
307	6.62835	2.6386954	0.7555	0.7514	7.247525	25.66161
308	6.65106	2.6406983	0.8255	0.8209	7.243398	25.66598
309	6.67667	2.6397370	0.8532	0.8485	7.240368	25.63653
310	6.69256	2.6363972	0.8500	0.8453	7.239869	25.58902
311	6.70215	2.6345629	0.8530	0.8483	7.239474	25.56230
312	6.69668	2.6343315	0.8073	0.8028	7.240340	25.56393
313	6.67869	2.6351301	0.7435	0.7394	7.242407	25.58589
314	6.66229	2.6373870	0.7221	0.7181	7.243522	25.62224
315	6.65477	2.6380700	0.7646	0.7604	7.244211	25.63515
316	6.66224	2.6392045	0.8471	0.8424	7.242616	25.64164
317	6.67972	2.6393433	0.8682	0.8635	7.240149	25.63005
318	6.69369	2.6367733	0.8562	0.8515	7.239524	25.59219
319	6.70256	2.6351877	0.8529	0.8482	7.239104	25.56866
320	6.69828	2.6349795	0.8134	0.8090	7.239795	25.56964
321	6.68059	2.6357376	0.7190	0.7151	7.241840	25.59096
322	6.66430	2.6376300	0.6640	0.6603	7.243122	25.62336
323	6.65750	2.6385736	0.7038	0.6999	7.243582	25.63851
324	6.66925	2.6408835	0.7951	0.7908	7.240808	25.65435
325	6.69003	2.6417693	0.8561	0.8514	7.237515	25.64824
326	6.70597	2.6400494	0.8653	0.8605	7.236195	25.61797
327	6.71536	2.6370277	0.8683	0.8635	7.236425	25.57874
328	6.71830	2.6358067	0.8469	0.8422	7.236634	25.56353
329	6.70091	2.6358994	0.7858	0.7814	7.238971	25.57751
330	6.67745	2.6375257	0.7068	0.7029	7.241371	25.61240
331	6.66214	2.6386546	0.7065	0.7026	7.242904	25.63590
332	6.66173	2.6401019	0.7676	0.7634	7.242233	25.65164
333	6.67951	2.6416883	0.8471	0.8424	7.238998	25.65525
334	6.69838	2.6416128	0.8805	0.8757	7.236449	25.64031
335	6.71040	2.6386542	0.8803	0.8755	7.236288	25.59977
336	6.71799	2.6368483	0.8590	0.8543	7.236154	25.57486
337	6.71221	2.6368947	0.8102	0.8058	7.236922	25.57969
338	6.69400	2.6373346	0.7219	0.7179	7.239197	25.59800
339	6.67843	2.6389554	0.6821	0.6784	7.240518	25.62694
340	6.66889	2.6390423	0.6945	0.6906	7.241782	25.63500
341	6.67240	2.6400207	0.7521	0.7480	7.240810	25.64280
342	6.68833	2.6413292	0.8163	0.8118	7.237969	25.64483
343	6.70313	2.6416360	0.8531	0.8485	7.235787	25.63702
344	6.71340	2.6400609	0.8803	0.8755	7.235171	25.61254
345	6.71850	2.6384110	0.8805	0.8757	7.235300	25.59113
346	6.71995	2.6378264	0.8590	0.8543	7.235394	25.58383
347	6.70849	2.6378381	0.8164	0.8119	7.236958	25.59252
348	6.69513	2.6386832	0.7676	0.7634	7.238365	25.61152
349	6.68657	2.6395574	0.7523	0.7482	7.239099	25.62725
350	6.68229	2.6397601	0.7524	0.7483	7.239584	25.63262
351	6.68142	2.6396617	0.7647	0.7605	7.239754	25.63222
352	6.68446	2.6395922	0.7767	0.7724	7.239372	25.62920
353	6.69240	2.6397137	0.7798	0.7755	7.238222	25.62456
354	6.70045	2.6394531	0.7920	0.7877	7.237250	25.61576
355	6.70524	2.6387468	0.7980	0.7937	7.236947	25.60464
356	6.70664	2.6387410	0.7980	0.7937	7.236759	25.60354
357	6.70911	2.6397367	0.8224	0.8179	7.235920	25.61230
358	6.71324	2.6406110	0.8469	0.8422	7.234916	25.61854
359	6.71923	2.6403619	0.8560	0.8513	7.234221	25.61141
360	6.72274	2.6389030	0.8620	0.8572	7.234472	25.59323
361	6.72408	2.6379421	0.8407	0.8361	7.234770	25.58199
362	6.71675	2.6377049	0.8164	0.8119	7.235893	25.58494
363	6.70292	2.6377744	0.7826	0.7783	7.237753	25.59601
364	6.69317	2.6384633	0.7553	0.7511	7.238744	25.61064
365	6.68833	2.6390711	0.7339	0.7299	7.239102	25.62076
366	6.68621	2.6396848	0.7401	0.7360	7.239084	25.62889
367	6.68740	2.6401711	0.7616	0.7574	7.238677	25.63318
368	6.69606	2.6412480	0.8011	0.7967	7.236949	25.63819
369	6.70746	2.6418560	0.8377	0.8331	7.235082	25.63614
370	6.71546	2.6402056	0.8529	0.8482	7.234816	25.61255
371	6.71928	2.6388509	0.8466	0.8419	7.234972	25.59526
372	6.72083	2.6382026	0.8285	0.8240	7.235085	25.58720
373	6.71205	2.6387410	0.8011	0.7967	7.236016	25.59950
374	6.70210	2.6399452	0.8008	0.7964	7.236776	25.61977
375	6.69740	2.6407211	0.8071	0.8027	7.237030	25.63156
376	6.69797	2.6407269	0.8226	0.8181	7.236950	25.63119
377	6.70143	2.6399221	0.8223	0.8178	7.236880	25.62002
378	6.70447	2.6390594	0.8222	0.8177	7.236897	25.60854
379	6.70674	2.6384342	0.7947	0.7904	7.236899	25.60019
380	6.70308	2.6385385	0.7612	0.7570	7.237348	25.60405
381	6.69575	2.6394821	0.7525	0.7483	7.237878	25.61959
382	6.69189	2.6404664	0.7582	0.7541	7.237914	25.63298
383	6.69354	2.6410280	0.7858	0.7814	7.237406	25.63773
384	6.70375	2.6419255	0.8164	0.8119	7.235556	25.63966
385	6.71427	2.6416359	0.8498	0.8451	7.234260	25.62869
386	6.72005	2.6399219	0.8649	0.8602	7.234329	25.60609
387	6.72428	2.6391924	0.8528	0.8481	7.234115	25.59516
388	6.72501	2.6387640	0.8377	0.8331	7.234231	25.59006
389	6.71974	2.6386425	0.8042	0.7998	7.235012	25.59271
390	6.71071	2.6386310	0.7704	0.7662	7.236255	25.59934
391	6.70323	2.6394241	0.7463	0.7422	7.236882	25.61339
392	6.70019	2.6409179	0.7551	0.7510	7.236549	25.63160
393	6.70261	2.6418213	0.7797	0.7754	7.235763	25.63941
394	6.70994	2.6424640	0.8071	0.8027	7.234437	25.64078
395	6.71887	2.6422381	0.8252	0.8207	7.233328	25.63170
396	6.72428	2.6406398	0.8406	0.8359	7.233389	25.61060
397	6.72769	2.6396092	0.8467	0.8420	7.233439	25.59707
398	6.72857	2.6387929	0.8222	0.8177	7.233728	25.58772
399	6.71974	2.6386715	0.7979	0.7935	7.234998	25.59302
400	6.70808	2.6392041	0.7735	0.7692	7.236328	25.60741
401	6.69942	2.6405937	0.7733	0.7691	7.236818	25.62871
402	6.69503	2.6414391	0.7946	0.7902	7.236994	25.64100
403	6.69441	2.6414565	0.8102	0.8057	7.237071	25.64164
404	6.69694	2.6406979	0.8102	0.8057	7.237106	25.63166
405	6.69921	2.6399452	0.8162	0.8117	7.237173	25.62193
406	6.70019	2.6396731	0.8130	0.8085	7.237175	25.61829
407	6.70040	2.6395805	0.8008	0.7964	7.237193	25.61715
408	6.70003	2.6401189	0.8039	0.7995	7.236972	25.62317
409	6.69993	2.6407500	0.8069	0.8024	7.236669	25.62998
410	6.69978	2.6412480	0.8100	0.8055	7.236440	25.63541
411	6.69900	2.6409353	0.8162	0.8117	7.236704	25.63264
412	6.69823	2.6399800	0.8131	0.8087	7.237290	25.62303
413	6.69838	2.6394010	0.8101	0.8056	7.237559	25.61674
414	6.69776	2.6395573	0.8009	0.7965	7.237565	25.61887
415	6.69452	2.6404490	0.8070	0.8026	7.237563	25.63081
416	6.69276	2.6410628	0.8190	0.8145	7.237495	25.63867
417	6.69364	2.6405880	0.8190	0.8145	7.237613	25.63295
418	6.69441	2.6397369	0.8162	0.8117	7.237935	25.62329
419	6.69529	2.6391521	0.8039	0.7995	7.238108	25.61640
420	6.69385	2.6392969	0.7887	0.7844	7.238233	25.61903
421	6.69049	2.6402290	0.7887	0.7844	7.238224	25.63148
422	6.68905	2.6409064	0.7979	0.7935	7.238082	25.63978
423	6.69008	2.6414102	0.8130	0.8085	7.237688	25.64438
424	6.69359	2.6413233	0.8283	0.8237	7.237251	25.64083
425	6.69880	2.6402000	0.8282	0.8237	7.237101	25.62495
426	6.70194	2.6395573	0.8160	0.8115	7.236993	25.61575
427	6.70256	2.6392042	0.7886	0.7842	7.237085	25.61153
428	6.69802	2.6398700	0.7763	0.7720	7.237372	25.62203
429	6.69354	2.6407501	0.7763	0.7720	7.237545	25.63477
430	6.69204	2.6415086	0.7916	0.7873	7.237369	25.64398
431	6.69550	2.6422151	0.8129	0.8084	7.236541	25.64893
432	6.70499	2.6424467	0.8313	0.8267	7.235125	25.64429
433	6.71324	2.6416590	0.8495	0.8448	7.234390	25.62971
434	6.71613	2.6405704	0.8586	0.8539	7.234541	25.61594
435	6.71804	2.6401419	0.8494	0.8447	7.234494	25.60995
436	6.71825	2.6396093	0.8252	0.8207	7.234733	25.60412
437	6.71283	2.6392620	0.7977	0.7933	7.235649	25.60448
438	6.70452	2.6391636	0.7336	0.7296	7.236835	25.60965
439	6.69560	2.6400900	0.6849	0.6812	7.237592	25.62622
440	6.68884	2.6414971	0.6941	0.6903	7.237812	25.64628
441	6.68668	2.6444568	0.7793	0.7751	7.236622	25.67947
442	6.69972	2.6481537	0.8404	0.8358	7.232979	25.70913
443	6.71531	2.6461774	0.8800	0.8752	7.231840	25.67636
444	6.72511	2.6417979	0.8862	0.8813	7.232695	25.62231
445	6.72955	2.6401766	0.8707	0.8659	7.232900	25.60172
446	6.72026	2.6403619	0.8098	0.8053	7.234079	25.61065
447	6.70798	2.6422092	0.7579	0.7538	7.234833	25.63955
448	6.69972	2.6440048	0.7367	0.7326	7.235061	25.66489
449	6.69539	2.6436457	0.7366	0.7325	7.235835	25.66430
450	6.69921	2.6437326	0.7641	0.7599	7.235269	25.66236
451	6.70947	2.6447405	0.7915	0.7872	7.233358	25.66542
452	6.71964	2.6453893	0.8373	0.8327	7.231642	25.66472
453	6.72681	2.6445086	0.8648	0.8600	7.231102	25.64995
454	6.72976	2.6427940	0.8646	0.8598	7.231559	25.62947
455	6.73192	2.6416647	0.8402	0.8355	7.231828	25.61582
456	6.72805	2.6412999	0.7945	0.7901	7.232541	25.61484
457	6.71918	2.6417921	0.7397	0.7357	7.233508	25.62674
458	6.71221	2.6433733	0.7120	0.7081	7.233668	25.64882
459	6.70896	2.6443002	0.7396	0.7355	7.233648	25.66113
460	6.71211	2.6450301	0.7913	0.7870	7.232852	25.66655
461	6.72155	2.6457080	0.8464	0.8418	7.231221	25.66669
462	6.72939	2.6452212	0.8800	0.8751	7.230392	25.65562
463	6.73404	2.6431473	0.8889	0.8841	7.230796	25.63003
464	6.73678	2.6417978	0.8707	0.8659	7.231098	25.61361
465	6.73244	2.6415315	0.8097	0.8052	7.231824	25.61403
466	6.72217	2.6419658	0.7123	0.7084	7.233011	25.62637
467	6.71267	2.6435645	0.6634	0.6598	7.233508	25.65053
468	6.70684	2.6438426	0.6787	0.6749	7.234167	25.65786
469	6.71149	2.6455748	0.7731	0.7688	7.232663	25.67283
470	6.72361	2.6460788	0.8555	0.8508	7.230752	25.66910
471	6.73373	2.6453660	0.8921	0.8872	7.229726	25.65392
472	6.74008	2.6432052	0.8859	0.8810	7.229941	25.62614
473	6.74261	2.6427302	0.8616	0.8568	7.229832	25.61920
474	6.73528	2.6431530	0.7883	0.7840	7.230622	25.62921
475	6.72449	2.6436165	0.6998	0.6960	7.231864	25.64224
476	6.71742	2.6442538	0.6572	0.6536	7.232512	25.65434
477	6.71448	2.6443754	0.7184	0.7144	7.232854	25.65781
478	6.72114	2.6457485	0.8035	0.7991	7.231256	25.66745
479	6.73099	2.6459918	0.8463	0.8416	7.229786	25.66265
480	6.73807	2.6452501	0.8645	0.8597	7.229191	25.64945
481	6.74204	2.6439813	0.8707	0.8659	7.229283	25.63295
482	6.74416	2.6434831	0.8402	0.8355	7.229242	25.62607
483	6.73951	2.6434890	0.8005	0.7961	7.229874	25.62962
484	6.73363	2.6439814	0.7822	0.7779	7.230433	25.63927
485	6.72996	2.6448967	0.7976	0.7932	7.230475	25.65177
486	6.73007	2.6458875	0.8950	0.8900	7.229966	25.66222
487	6.73600	2.6476666	1.0930	1.0870	7.228266	25.67667
488	6.74292	2.6482346	1.3341	1.3268	7.227040	25.67745
489	6.74793	2.6476898	1.5839	1.5752	7.226633	25.66780
490	6.75154	2.6480723	1.8188	1.8088	7.225951	25.66908
491	6.75475	2.6501998	2.0322	2.0211	7.224452	25.68928
492	6.76043	2.6766736	2.2454	2.2331	7.210432	25.96723
493	6.77143	2.7002828	2.4739	2.4603	7.197140	26.21079
494	6.78208	2.7074778	2.6875	2.6727	7.192112	26.27941
495	6.78952	2.7045277	2.9435	2.9273	7.192585	26.24212
496	6.79402	2.7031085	3.1815	3.1640	7.192691	26.22344
497	6.79660	2.7033422	3.4071	3.3883	7.192230	26.22387
498	6.79764	2.7037802	3.6509	3.6308	7.191876	26.22766
499	6.79738	2.7061868	3.9040	3.8825	7.190715	26.25344
500	6.79924	2.7222579	4.1538	4.1309	7.182451	26.42352
501	6.80472	2.7428536	4.3946	4.3704	7.171452	26.63927
502	6.80943	2.7446151	4.6355	4.6100	7.169949	26.65436
503	6.81372	2.7519883	4.8761	4.8493	7.165706	26.72975
504	6.81781	2.7572391	5.1110	5.0829	7.162550	26.78263
505	6.82065	2.7577156	5.3609	5.3314	7.161938	26.78540
506	6.82282	2.7593806	5.6108	5.5799	7.160824	26.80141
507	6.82655	2.7829288	5.8426	5.8104	7.148617	27.05034
508	6.83560	2.8183236	6.0803	6.0468	7.129830	27.42223
509	6.84627	2.8369298	6.3273	6.2925	7.119195	27.61312
510	6.85636	2.8535974	6.5803	6.5440	7.109611	27.78371
511	6.86837	2.8857068	6.8364	6.7987	7.092141	28.11864
512	6.88272	2.9165262	7.0773	7.0383	7.075041	28.43806
513	6.89708	2.9300021	7.3210	7.2806	7.066539	28.57103
514	6.90952	2.9393985	7.5621	7.5204	7.060309	28.66168
515	6.91932	2.9461592	7.8027	7.7597	7.055724	28.72614
516	6.92642	2.9500966	8.0558	8.0113	7.052879	28.76247
517	6.93166	2.9514478	8.2996	8.2538	7.051548	28.77252
518	6.93550	2.9539456	8.5527	8.5055	7.049832	28.79607
519	6.94069	2.9557500	8.8059	8.7573	7.048286	28.81104
520	6.94702	2.9579896	9.0648	9.0148	7.046381	28.82972
521	6.95413	2.9610450	9.3178	9.2664	7.043976	28.85652
522	6.96077	2.9638902	9.5677	9.5149	7.041735	28.88144
523	6.96575	2.9654008	9.8208	9.7667	7.040362	28.89340
524	6.96850	2.9667002	10.0645	10.0089	7.039378	28.90496
525	6.96908	2.9669118	10.3178	10.2609	7.039207	28.90665
526	6.96819	2.9678246	10.5737	10.5153	7.038875	28.91710
527	6.96549	2.9693360	10.8176	10.7579	7.038480	28.93552
528	6.96155	2.9705817	11.0646	11.0035	7.038375	28.95213
529	6.95869	2.9721541	11.2961	11.2337	7.037969	28.97135
530	6.95880	2.9750639	11.5431	11.4793	7.036530	29.00247
531	6.96072	2.9773150	11.7810	11.7160	7.035184	29.02497
532	6.96357	2.9793972	12.0248	11.9584	7.033802	29.04487
533	6.96513	2.9832604	12.2716	12.2038	7.031711	29.08503
534	6.96269	2.9863620	12.5155	12.4464	7.030500	29.12038
535	6.95791	2.9892528	12.7655	12.6950	7.029689	29.15544
536	6.95127	2.9914534	13.0156	12.9437	7.029454	29.18466
537	6.94240	2.9934606	13.2624	13.1891	7.029595	29.21371
538	6.93176	2.9946798	13.5123	13.4376	7.030347	29.23577
539	6.91906	2.9956748	13.7623	13.6862	7.031471	29.25719
540	6.90879	2.9977680	14.0095	13.9321	7.031744	29.28840
541	6.90076	2.9994672	14.2531	14.1743	7.031928	29.31348
542	6.89148	3.0010333	14.4878	14.4077	7.032335	29.33819
543	6.88138	3.0013734	14.7286	14.6472	7.033451	29.35038
544	6.87050	3.0025331	14.9665	14.8837	7.034260	29.37209
545	6.85931	3.0035230	15.1980	15.1139	7.035192	29.39225
546	6.84828	3.0048955	15.4541	15.3687	7.035915	29.41641
547	6.83638	3.0064931	15.6859	15.5991	7.036636	29.44378
548	6.82443	3.0099320	15.9388	15.8507	7.036453	29.49113
549	6.81237	3.0144973	16.1980	16.1084	7.035722	29.55079
550	6.80012	3.0182316	16.4754	16.3842	7.035427	29.60168
551	6.78993	3.0198318	16.7223	16.6297	7.035926	29.62769
552	6.78296	3.0220348	16.9783	16.8843	7.035720	29.65748
553	6.77965	3.0243601	17.2223	17.1270	7.034990	29.68545
554	6.77918	3.0267044	17.4631	17.3665	7.033891	29.71116
555	6.77980	3.0276910	17.7129	17.6149	7.033328	29.72122
556	6.77892	3.0287204	17.9508	17.8514	7.032933	29.73304
557	6.77520	3.0307796	18.1916	18.0909	7.032386	29.75849
558	6.76921	3.0322055	18.4478	18.3456	7.032440	29.77905
559	6.76172	3.0329918	18.6885	18.5850	7.032999	29.79398
560	6.75273	3.0338696	18.9323	18.8274	7.033701	29.81120
561	6.74116	3.0345707	19.1794	19.0731	7.034817	29.82876
562	6.72883	3.0355097	19.4292	19.3215	7.035911	29.84959
563	6.71696	3.0359244	19.6760	19.5670	7.037207	29.86432
564	6.70684	3.0359673	19.9321	19.8217	7.038467	29.87348
565	6.69890	3.0363271	20.1912	20.0793	7.039295	29.88420
566	6.69209	3.0365712	20.4382	20.3249	7.040038	29.89269
567	6.68750	3.0367542	20.6850	20.5703	7.040531	29.89857
568	6.68436	3.0369372	20.9259	20.8099	7.040842	29.90320
569	6.68131	3.0370166	21.1638	21.0464	7.041191	29.90661
570	6.67817	3.0371813	21.4075	21.2888	7.041511	29.91104
571	6.67420	3.0370168	21.6484	21.5283	7.042099	29.91261
572	6.66961	3.0369071	21.8952	21.7738	7.042738	29.91531
573	6.66528	3.0369012	22.1420	22.0192	7.043293	29.91892
574	6.66080	3.0367854	22.3797	22.2556	7.043921	29.92147
575	6.65601	3.0368160	22.6240	22.4985	7.044516	29.92588
576	6.65142	3.0368771	22.8585	22.7317	7.045070	29.93044
577	6.64673	3.0371882	23.0933	22.9651	7.045512	29.93782
578	6.64127	3.0383042	23.3248	23.1954	7.045649	29.95465
579	6.63581	3.0394326	23.5565	23.4257	7.045779	29.97162
580	6.63072	3.0405246	23.7973	23.6652	7.045882	29.98788
581	6.62665	3.0414825	24.0230	23.8897	7.045922	30.00178
582	6.62366	3.0421049	24.2515	24.1168	7.045992	30.01108
583	6.62114	3.0426358	24.4801	24.3442	7.046050	30.01898
584	6.61903	3.0432644	24.7176	24.5804	7.046007	30.02758
585	6.61759	3.0441310	24.9649	24.8262	7.045761	30.03818
586	6.61579	3.0454006	25.2241	25.0840	7.045358	30.05349
587	6.61373	3.0463102	25.4556	25.3142	7.045168	30.06511
588	6.61172	3.0472809	25.7024	25.5596	7.044941	30.07735
589	6.61023	3.0483800	25.9402	25.7960	7.044584	30.09055
590	6.60981	3.0493632	26.1840	26.0385	7.044149	30.10153
591	6.60997	3.0501206	26.4185	26.2717	7.043755	30.10955
592	6.61012	3.0506031	26.6536	26.5054	7.043499	30.11457
593	6.60971	3.0508536	26.8760	26.7266	7.043431	30.11757
594	6.60843	3.0510675	27.1107	26.9600	7.043491	30.12093
595	6.60662	3.0512203	27.3546	27.2025	7.043646	30.12407
596	6.60421	3.0512387	27.5831	27.4298	7.043947	30.12630
597	6.60174	3.0511288	27.8180	27.6633	7.044318	30.12717
598	6.59885	3.0511533	28.0526	27.8966	7.044674	30.12987
599	6.59566	3.0513428	28.2783	28.1210	7.044986	30.13464
600	6.59361	3.0517888	28.5068	28.3483	7.045027	30.14122
601	6.59268	3.0527174	28.7507	28.5908	7.044684	30.15206
602	6.59289	3.0544283	29.0005	28.8391	7.043806	30.17045
603	6.59427	3.0564512	29.2507	29.0879	7.042624	30.19119
604	6.59659	3.0583462	29.4946	29.3305	7.041389	30.20973
605	6.59927	3.0598136	29.7322	29.5668	7.040322	30.22328
606	6.60174	3.0614037	29.9882	29.8213	7.039221	30.23834
607	6.60421	3.0629206	30.2349	30.0666	7.038157	30.25261
608	6.60611	3.0637954	30.4911	30.3213	7.037485	30.26036
609	6.60595	3.0641993	30.7411	30.5700	7.037307	30.26479
610	6.60287	3.0643462	30.9970	30.8244	7.037627	30.26901
611	6.59788	3.0642240	31.2626	31.0885	7.038322	30.27197
612	6.59319	3.0646340	31.5245	31.3489	7.038711	30.28048
613	6.58892	3.0656682	31.8018	31.6247	7.038736	30.29543
614	6.58558	3.0664944	32.0763	31.8976	7.038748	30.30729
615	6.58357	3.0671126	32.3444	32.1642	7.038696	30.31570
616	6.58517	3.0694081	32.6127	32.4310	7.037352	30.33925
617	6.59026	3.0716184	32.8840	32.7008	7.035611	30.35876
618	6.59371	3.0731678	33.1645	32.9796	7.034409	30.37250
619	6.59674	3.0752934	33.4236	33.2373	7.032970	30.39291
620	6.60230	3.0779098	33.6981	33.5102	7.030970	30.41644
621	6.60879	3.0803738	34.0027	33.8131	7.028932	30.43745
622	6.61424	3.0814589	34.3105	34.1192	7.027712	30.44431
623	6.61779	3.0817655	34.5970	34.4041	7.027120	30.44437
624	6.61893	3.0820109	34.8865	34.6919	7.026862	30.44592
625	6.61800	3.0817044	35.1670	34.9709	7.027137	30.44327
626	6.61326	3.0817229	35.4657	35.2678	7.027727	30.44754
627	6.60853	3.0837711	35.7522	35.5527	7.027302	30.47401
628	6.60935	3.0880714	36.0419	35.8407	7.025056	30.52013
629	6.61779	3.0940622	36.3404	36.1376	7.021014	30.57793
630	6.63025	3.0978825	36.6210	36.4166	7.017557	30.60841
631	6.64287	3.1000144	36.9165	36.7104	7.014926	30.62029
632	6.65369	3.1015938	37.2060	36.9983	7.012796	30.62773
633	6.66420	3.1029460	37.4927	37.2834	7.010819	30.63297
634	6.67394	3.1042432	37.8036	37.5925	7.008967	30.63827
635	6.68286	3.1059279	38.1023	37.8895	7.007026	30.64855
636	6.69127	3.1088187	38.4010	38.1865	7.004549	30.67244
637	6.69916	3.1107874	38.7149	38.4986	7.002596	30.68672
638	6.70561	3.1114212	39.0501	38.8319	7.001487	30.68771
639	6.70942	3.1118890	39.3673	39.1473	7.000788	30.68925
640	6.71190	3.1124983	39.6782	39.4565	7.000184	30.69353
641	6.71541	3.1136985	39.9953	39.7717	6.999159	30.70334
642	6.72134	3.1145849	40.3062	40.0808	6.997989	30.70755
643	6.72743	3.1149974	40.6200	40.3928	6.997036	30.70645
644	6.73213	3.1152376	40.9338	40.7049	6.996340	30.70472
645	6.73389	3.1153546	41.2540	41.0232	6.996071	30.70428
646	6.73265	3.1157180	41.5589	41.3264	6.996051	30.70921
647	6.73105	3.1160629	41.8666	41.6324	6.996085	30.71427
648	6.72945	3.1163339	42.1897	41.9537	6.996155	30.71851
649	6.72779	3.1165987	42.5036	42.2658	6.996235	30.72273
650	6.72604	3.1169067	42.8237	42.5840	6.996306	30.72752
651	6.72475	3.1172763	43.1405	42.8990	6.996290	30.73256
652	6.72377	3.1190254	43.4548	43.2115	6.995550	30.75237
653	6.72372	3.1234799	43.7959	43.5507	6.993353	30.80085
654	6.72392	3.1302554	44.1254	43.8783	6.989972	30.87443
655	6.72031	3.1357404	44.4544	44.2054	6.987704	30.93740
656	6.71412	3.1382466	44.7713	44.5205	6.987231	30.97021
657	6.70803	3.1396668	45.0944	44.8418	6.987284	30.99107
658	6.70236	3.1406612	45.4082	45.1538	6.987497	31.00692
659	6.69761	3.1415012	45.7315	45.4753	6.987672	31.02025
660	6.69410	3.1420387	46.0394	45.7814	6.987844	31.02915
661	6.69235	3.1426009	46.3564	46.0965	6.987788	31.03674
662	6.69147	3.1430581	46.6673	46.4057	6.987675	31.04239
663	6.69132	3.1437439	46.9813	46.7179	6.987360	31.04988
664	6.69127	3.1447016	47.3012	47.0360	6.986898	31.06024
665	6.69054	3.1460116	47.6212	47.3541	6.986342	31.07507
666	6.68771	3.1469449	47.9353	47.6664	6.986235	31.08770
667	6.68111	3.1477856	48.2431	47.9725	6.986637	31.10274
668	6.66570	3.1490715	48.5449	48.2725	6.987904	31.13066
669	6.64194	3.1498199	48.8526	48.5784	6.990466	31.16031
670	6.61522	3.1500614	49.1574	48.8815	6.993649	31.18715
671	6.59216	3.1503955	49.4684	49.1908	6.996334	31.21169
672	6.57427	3.1503649	49.7701	49.4907	6.998565	31.22755
673	6.56018	3.1502415	50.0840	49.8028	7.000374	31.23891
674	6.54573	3.1505076	50.3859	50.1030	7.002031	31.25489
675	6.52308	3.1507552	50.6968	50.4121	7.004714	31.27819
676	6.49612	3.1508112	51.0014	50.7150	7.008025	31.30335
677	6.46893	3.1506632	51.3154	51.0271	7.011471	31.32652
678	6.44001	3.1505152	51.6262	51.3361	7.015133	31.35129
679	6.41147	3.1504476	51.9221	51.6304	7.018709	31.37665
680	6.38361	3.1505160	52.2237	51.9302	7.022135	31.40290
681	6.35879	3.1505782	52.5285	52.2333	7.025189	31.42632
682	6.33976	3.1504857	52.8212	52.5243	7.027603	31.44271
683	6.32509	3.1505478	53.1137	52.8151	7.029399	31.45681
684	6.31400	3.1506345	53.4063	53.1060	7.030739	31.46787
685	6.30587	3.1507274	53.6959	53.3940	7.031707	31.47627
686	6.29923	3.1507894	53.9731	53.6696	7.032507	31.48297
687	6.29249	3.1507277	54.2596	53.9545	7.033382	31.48839
688	6.28585	3.1505733	54.5950	54.2879	7.034293	31.49266
689	6.27895	3.1505488	54.9089	54.5999	7.035169	31.49862
690	6.27104	3.1506664	55.2045	54.8939	7.036099	31.50711
691	6.26379	3.1506666	55.5154	55.2030	7.037007	31.51368
692	6.25828	3.1506049	55.8140	55.4999	7.037730	31.51796
693	6.25338	3.1505741	56.0946	55.7789	7.038361	31.52203
694	6.24879	3.1506052	56.3810	56.0636	7.038923	31.52649
695	6.24516	3.1505496	56.6644	56.3454	7.039408	31.52910
696	6.24231	3.1504570	56.9602	56.6395	7.039817	31.53058
697	6.24006	3.1504819	57.2466	56.9242	7.040090	31.53281
698	6.23838	3.1504016	57.5302	57.2062	7.040346	31.53334
699	6.23659	3.1504264	57.8077	57.4821	7.040562	31.53514
700	6.23471	3.1504884	58.0819	57.7547	7.040771	31.53745
701	6.23328	3.1504266	58.3558	58.0270	7.040986	31.53796
702	6.23205	3.1503525	58.6454	58.3149	7.041182	31.53814
703	6.23088	3.1503094	58.9413	58.6091	7.041357	31.53861
704	6.22955	3.1502785	59.2368	58.9030	7.041544	31.53936
705	6.22864	3.1503405	59.5448	59.2091	7.041633	31.54075
706	6.22670	3.1505199	59.8375	59.5001	7.041789	31.54440
707	6.21461	3.1511137	60.1117	59.7727	7.042997	31.56206
708	6.19407	3.1514788	60.4104	60.0697	7.045374	31.58505
709	6.17308	3.1519614	60.6816	60.3394	7.047747	31.60979
710	6.15327	3.1523204	60.9652	60.6213	7.050038	31.63208
711	6.13414	3.1525062	61.2455	60.9000	7.052334	31.65184
712	6.11740	3.1528589	61.5319	61.1848	7.054246	31.67124
713	6.10423	3.1530138	61.8155	61.4667	7.055815	31.68512
714	6.09477	3.1531933	62.0864	61.7361	7.056909	31.69582
715	6.08755	3.1534285	62.3609	62.0090	7.057694	31.70505
716	6.08104	3.1537441	62.6382	62.2846	7.058350	31.71451
717	6.07474	3.1541834	62.9156	62.5604	7.058917	31.72516
718	6.06788	3.1545423	63.2051	62.8483	7.059595	31.73544
719	6.06097	3.1547528	63.4947	63.1361	7.060355	31.74411
720	6.05320	3.1549014	63.7841	63.4239	7.061255	31.75290
721	6.04498	3.1548521	64.0859	63.7240	7.062313	31.75991
722	6.03665	3.1546049	64.3845	64.0209	7.063487	31.76482
723	6.02843	3.1547226	64.6500	64.2847	7.064459	31.77371
724	6.02147	3.1547227	64.9303	64.5634	7.065333	31.78010
725	6.01523	3.1546610	65.2106	64.8421	7.066151	31.78513
726	6.00777	3.1547911	65.4911	65.1210	7.067022	31.79344
727	6.00163	3.1547541	65.7561	65.3844	7.067814	31.79866
728	5.99661	3.1547542	66.0273	65.6541	7.068447	31.80325
729	5.99261	3.1546616	66.3109	65.9360	7.069002	31.80584
730	5.98926	3.1547607	66.5852	66.2087	7.069375	31.80996
731	5.98561	3.1549958	66.8563	66.4782	7.069716	31.81588
732	5.98074	3.1553857	67.1246	66.7449	7.070129	31.82468
733	5.97481	3.1555653	67.3930	67.0119	7.070784	31.83213
734	5.96893	3.1556273	67.6517	67.2691	7.071493	31.83823
735	5.96209	3.1555841	67.9292	67.5449	7.072377	31.84405
736	5.95398	3.1554791	68.1942	67.8084	7.073451	31.85037
737	5.94440	3.1554484	68.4719	68.0844	7.074670	31.85891
738	5.93569	3.1555661	68.7399	68.3509	7.075705	31.86829
739	5.92825	3.1556281	69.0232	68.6325	7.076611	31.87586
740	5.92227	3.1557148	69.2734	68.8812	7.077319	31.88234
741	5.91721	3.1559253	69.5444	69.1507	7.077850	31.88934
742	5.91270	3.1562286	69.8127	69.4175	7.078263	31.89685
743	5.90891	3.1565257	70.0811	69.6843	7.078590	31.90362
744	5.90435	3.1570704	70.3461	69.9477	7.078883	31.91389
745	5.89727	3.1576522	70.6112	70.2112	7.079474	31.92696
746	5.88978	3.1578813	70.8734	70.4720	7.080299	31.93647
747	5.88320	3.1579990	71.1416	70.7386	7.081067	31.94387
748	5.87779	3.1581229	71.4008	70.9963	7.081686	31.95024
749	5.87379	3.1581849	71.6719	71.2658	7.082160	31.95458
750	5.87010	3.1583150	71.9187	71.5112	7.082560	31.95941
751	5.86636	3.1585132	72.1809	71.7719	7.082932	31.96504
752	5.86181	3.1587237	72.4490	72.0383	7.083398	31.97158
753	5.85579	3.1590519	72.7170	72.3048	7.083987	31.98082
754	5.85003	3.1596895	73.0037	72.5898	7.084384	31.99328
755	5.84488	3.1601292	73.3055	72.8898	7.084807	32.00294
756	5.84073	3.1605564	73.5675	73.1503	7.085110	32.01153
757	5.83735	3.1607113	73.8265	73.4078	7.085459	32.01635
758	5.83411	3.1611633	74.0917	73.6714	7.085635	32.02436
759	5.82901	3.1621850	74.3599	73.9381	7.085748	32.04053
760	5.82209	3.1627300	74.6221	74.1987	7.086337	32.05308
761	5.81628	3.1629654	74.8871	74.4622	7.086948	32.06110
762	5.81173	3.1631513	75.1433	74.7169	7.087426	32.06738
763	5.80870	3.1633310	75.3870	74.9591	7.087717	32.07216
764	5.80593	3.1635416	75.6552	75.2258	7.087961	32.07703
765	5.80295	3.1636594	75.9144	75.4835	7.088279	32.08106
766	5.79982	3.1637524	76.1703	75.7378	7.088628	32.08495
767	5.79689	3.1639631	76.4262	75.9922	7.088891	32.08997
768	5.79391	3.1640561	76.6824	76.2469	7.089221	32.09373
769	5.79023	3.1642358	76.9353	76.4984	7.089595	32.09912
770	5.78644	3.1644155	77.2128	76.7742	7.089982	32.10461
771	5.78306	3.1645147	77.4654	77.0254	7.090359	32.10882
772	5.78003	3.1646263	77.7306	77.2890	7.090686	32.11282
773	5.77706	3.1646884	77.9896	77.5465	7.091033	32.11622
774	5.77489	3.1647752	78.2489	77.8043	7.091265	32.11914
775	5.77257	3.1648372	78.5048	78.0587	7.091529	32.12192
776	5.77035	3.1649302	78.7579	78.3103	7.091765	32.12496
777	5.76858	3.1649613	79.0139	78.5647	7.091975	32.12686
778	5.76702	3.1650171	79.2636	78.8130	7.092148	32.12886
779	5.76555	3.1650791	79.5229	79.0708	7.092305	32.13082
780	5.76424	3.1650792	79.7634	79.3099	7.092474	32.13195
781	5.76399	3.1651722	80.0166	79.5616	7.092463	32.13312
782	5.76394	3.1653085	80.2756	79.8191	7.092404	32.13457
783	5.76303	3.1654139	80.5317	80.0737	7.092469	32.13650
784	5.76202	3.1654698	80.7814	80.3219	7.092571	32.13796
785	5.76071	3.1654141	81.0372	80.5762	7.092771	32.13846
786	5.75980	3.1652593	81.3115	80.8489	7.092971	32.13745
787	5.75723	3.1658355	81.6072	81.1429	7.092999	32.14624
788	5.75047	3.1664861	81.9059	81.4398	7.093513	32.15985
789	5.74099	3.1669509	82.1771	81.7093	7.094464	32.17398
790	5.73257	3.1671617	82.4423	81.9730	7.095415	32.18425
791	5.72607	3.1672795	82.6984	82.2276	7.096174	32.19166
792	5.72053	3.1674655	82.9695	82.4971	7.096778	32.19891
793	5.71610	3.1675710	83.2498	82.7758	7.097285	32.20420
794	5.71317	3.1675835	83.5213	83.0456	7.097651	32.20700
795	5.71065	3.1677013	83.7924	83.3152	7.097912	32.21060
796	5.70733	3.1679183	84.0669	83.5880	7.098221	32.21608
797	5.70340	3.1681848	84.3410	83.8605	7.098580	32.22271
798	5.69882	3.1683956	84.6274	84.1452	7.099051	32.22932
799	5.69378	3.1686560	84.9202	84.4363	7.099553	32.23693
800	5.68804	3.1690032	85.2157	84.7301	7.100098	32.24619
801	5.68008	3.1692760	85.5021	85.0148	7.100959	32.25673
802	5.66926	3.1695489	85.8161	85.3269	7.102181	32.27002
803	5.65769	3.1699085	86.1178	85.6269	7.103451	32.28501
804	5.64788	3.1702434	86.4104	85.9177	7.104513	32.29805
805	5.64028	3.1704419	86.6937	86.1994	7.105368	32.30743
806	5.63410	3.1704854	86.9985	86.5023	7.106129	32.31371
807	5.62977	3.1705723	87.3002	86.8023	7.106633	32.31869
808	5.62610	3.1705724	87.6082	87.1084	7.107100	32.32207
809	5.62173	3.1707275	87.9126	87.4110	7.107575	32.32787
810	5.61594	3.1708764	88.2173	87.7140	7.108229	32.33495
811	5.60815	3.1712361	88.5285	88.0233	7.109025	32.34635
812	5.59946	3.1714470	88.8271	88.3201	7.110013	32.35694
813	5.59097	3.1716022	89.1440	88.6351	7.111005	32.36670
814	5.58439	3.1716643	89.4761	88.9653	7.111806	32.37357
815	5.57972	3.1717822	89.7932	89.2805	7.112338	32.37924
816	5.57655	3.1718444	90.1255	89.6108	7.112711	32.38283
817	5.57434	3.1719746	90.4240	89.9075	7.112926	32.38628
818	5.57223	3.1721173	90.7349	90.2166	7.113123	32.38977
819	5.56997	3.1727188	91.0576	90.5374	7.113097	32.39859
820	5.56676	3.1734753	91.4022	90.8800	7.113110	32.41007
821	5.56244	3.1739900	91.7437	91.2194	7.113388	32.41989
822	5.55772	3.1742320	92.0698	91.5436	7.113861	32.42701
823	5.55456	3.1743685	92.3838	91.8558	7.114193	32.43145
824	5.55245	3.1744741	92.7341	92.2040	7.114410	32.43451
825	5.55115	3.1744742	93.0662	92.5341	7.114582	32.43560
826	5.55014	3.1744743	93.4016	92.8675	7.114716	32.43641
827	5.54894	3.1746543	93.7458	93.2096	7.114780	32.43944
828	5.54789	3.1749272	94.1023	93.5640	7.114776	32.44337
829	5.54658	3.1751630	94.4438	93.9035	7.114824	32.44713
830	5.54508	3.1753491	94.7668	94.2246	7.114922	32.45053
831	5.54392	3.1754423	95.0898	94.5456	7.115025	32.45254
832	5.54287	3.1755664	95.4310	94.8848	7.115100	32.45479
833	5.54201	3.1757464	95.7664	95.2182	7.115119	32.45749
834	5.54131	3.1759883	96.1136	95.5634	7.115088	32.46073
835	5.54011	3.1762923	96.4614	95.9091	7.115086	32.46517
836	5.53870	3.1764103	96.8027	96.2484	7.115208	32.46769
837	5.53725	3.1764725	97.1561	96.5996	7.115366	32.46963
838	5.53609	3.1765036	97.5065	96.9479	7.115503	32.47092
839	5.53534	3.1765657	97.8753	97.3145	7.115573	32.47217
840	5.53474	3.1765906	98.2136	97.6508	7.115643	32.47287
841	5.53369	3.1767768	98.5670	98.0021	7.115685	32.47582
842	5.53268	3.1768886	98.9386	98.3715	7.115761	32.47787
843	5.53198	3.1771058	99.2740	98.7048	7.115742	32.48084
844	5.53133	3.1778068	99.6155	99.0443	7.115461	32.48924
845	5.53103	3.1780179	99.9719	99.3986	7.115396	32.49175
846	5.53073	3.1783778	100.3225	99.7471	7.115251	32.49594
847	5.53042	3.1792588	100.6547	100.0774	7.114831	32.50605
848	5.52957	3.1797429	100.9898	100.4104	7.114690	32.51219
849	5.52902	3.1802146	101.3100	100.7287	7.114517	32.51791
850	5.52857	3.1804691	101.6727	101.0892	7.114448	32.52105
851	5.52782	3.1813194	102.0350	101.4494	7.114101	32.53123
852	5.52636	3.1826849	102.3765	101.7889	7.113569	32.54793
853	5.52415	3.1837154	102.7574	102.1674	7.113310	32.56155
854	5.52175	3.1842308	103.0956	102.5037	7.113347	32.56956
855	5.51964	3.1844730	103.4704	102.8761	7.113492	32.57416
856	5.51844	3.1845725	103.8149	103.2186	7.113598	32.57628
857	5.51783	3.1846285	104.1834	103.5849	7.113653	32.57732
858	5.51733	3.1847465	104.5401	103.9395	7.113662	32.57897
859	5.51713	3.1852309	104.9028	104.3000	7.113439	32.58447
860	5.51743	3.1863549	105.2380	104.6331	7.112814	32.59675
861	5.51829	3.1874479	105.5917	104.9847	7.112137	32.60814
862	5.51989	3.1889387	105.9605	105.3513	7.111156	32.62329
863	5.52240	3.1895475	106.3108	105.6996	7.110528	32.62758
864	5.52446	3.1904049	106.6430	106.0297	7.109825	32.63514
865	5.52591	3.1908833	107.0117	106.3963	7.109398	32.63897
866	5.52706	3.1913743	107.3682	106.7506	7.109002	32.64323
867	5.52807	3.1915856	107.7128	107.0931	7.108773	32.64448
868	5.52882	3.1917100	108.0598	107.4381	7.108621	32.64499
869	5.52932	3.1918281	108.3860	107.7623	7.108503	32.64568
870	5.52977	3.1919525	108.7396	108.1137	7.108389	32.64648
871	5.53022	3.1921328	109.0809	108.4530	7.108245	32.64791
872	5.53103	3.1926487	109.4131	108.7831	7.107880	32.65281
873	5.53193	3.1929471	109.7665	109.1345	7.107617	32.65514
874	5.53278	3.1933511	110.1049	109.4708	7.107305	32.65873
875	5.53318	3.1939292	110.4431	109.8069	7.106957	32.66472
876	5.53359	3.1943892	110.7812	110.1431	7.106671	32.66937
877	5.53414	3.1947250	111.1380	110.4977	7.106433	32.67247
878	5.53444	3.1951478	111.4854	110.8430	7.106180	32.67679
879	5.53454	3.1955146	111.8234	111.1790	7.105982	32.68068
880	5.53474	3.1956639	112.1681	111.5216	7.105885	32.68201
881	5.53479	3.1957262	112.5184	111.8697	7.105854	32.68249
882	5.53489	3.1958071	112.8504	112.1998	7.105807	32.68315
883	5.53489	3.1960932	113.1766	112.5240	7.105663	32.68623
884	5.53499	3.1965533	113.5149	112.8603	7.105415	32.69118
885	5.53494	3.1971628	113.8562	113.1995	7.105108	32.69796
886	5.53474	3.1975857	114.2128	113.5539	7.104917	32.70277
887	5.53469	3.1977412	114.5631	113.9021	7.104850	32.70441
888	5.53454	3.1978035	114.8893	114.2263	7.104843	32.70510
889	5.53434	3.1979528	115.2122	114.5473	7.104797	32.70683
890	5.53434	3.1981955	115.5624	114.8954	7.104677	32.70941
891	5.53454	3.1985438	115.9132	115.2440	7.104476	32.71299
892	5.53454	3.1991720	116.2544	115.5831	7.104152	32.71994
893	5.53459	3.1995391	116.5897	115.9164	7.103959	32.72388
894	5.53449	3.1999061	116.9310	116.2556	7.103786	32.72797
895	5.53414	3.2002732	117.2693	116.5919	7.103644	32.73230
896	5.53414	3.2004848	117.6289	116.9493	7.103540	32.73452
897	5.53399	3.2006404	117.9487	117.2673	7.103484	32.73627
898	5.53384	3.2007027	118.2750	117.5915	7.103478	32.73697
899	5.53374	3.2007899	118.6162	117.9307	7.103452	32.73788
900	5.53379	3.2009455	118.9453	118.2578	7.103371	32.73944
901	5.53394	3.2010078	119.2927	118.6030	7.103327	32.73982
902	5.53389	3.2011199	119.6339	118.9422	7.103282	32.74097
903	5.53384	3.2012506	119.9633	119.2696	7.103227	32.74234
904	5.53374	3.2013440	120.2922	119.5965	7.103198	32.74333
905	5.53364	3.2015556	120.6397	119.9419	7.103107	32.74566
906	5.53364	3.2020721	120.9840	120.2841	7.102842	32.75134
907	5.53384	3.2026881	121.3251	120.6231	7.102499	32.75796
908	5.53404	3.2031113	121.6667	120.9626	7.102259	32.76239
909	5.53429	3.2032047	122.0200	121.3138	7.102186	32.76303
910	5.53449	3.2032671	122.3614	121.6531	7.102136	32.76337
911	5.53474	3.2033605	122.7149	122.0045	7.102063	32.76401
912	5.53474	3.2034166	123.0500	122.3375	7.102041	32.76448
913	5.53469	3.2034105	123.3549	122.6406	7.102058	32.76431
914	5.53464	3.2034168	123.7145	122.9980	7.102069	32.76425
915	5.53459	3.2034480	124.0375	123.3190	7.102066	32.76450
916	5.53454	3.2034481	124.3729	123.6524	7.102080	32.76438
917	5.53454	3.2033922	124.7259	124.0033	7.102118	32.76357
918	5.53439	3.2033301	125.0735	124.3487	7.102178	32.76284
919	5.53414	3.2032991	125.4455	124.7184	7.102234	32.76255
920	5.53384	3.2032992	125.7898	125.0607	7.102279	32.76268
921	5.53369	3.2033616	126.1217	125.3906	7.102273	32.76336
922	5.53348	3.2034177	126.4448	125.7117	7.102276	32.76404
923	5.53374	3.2034489	126.7859	126.0507	7.102236	32.76398
924	5.53374	3.2035112	127.1459	126.4085	7.102211	32.76451
925	5.53389	3.2035424	127.4779	126.7385	7.102184	32.76455
926	5.53404	3.2036670	127.8068	127.0654	7.102107	32.76565
927	5.53414	3.2036982	128.1666	127.4229	7.102086	32.76573
928	5.53429	3.2037854	128.4864	127.7408	7.102028	32.76641
929	5.53444	3.2039100	128.8459	128.0981	7.101952	32.76750
930	5.53444	3.2040345	129.1815	128.4316	7.101894	32.76875
931	5.53464	3.2042462	129.5166	128.7646	7.101765	32.77078
932	5.53504	3.2044579	129.8458	129.0918	7.101611	32.77263
933	5.53554	3.2053479	130.1868	129.4308	7.101086	32.78206
934	5.53665	3.2064497	130.5406	129.7824	7.100374	32.79329
935	5.53815	3.2069664	130.8602	130.1001	7.099921	32.79752
936	5.53931	3.2071221	131.2048	130.4425	7.099703	32.79799
937	5.53986	3.2072716	131.5518	130.7875	7.099563	32.79897
938	5.54016	3.2073651	131.8934	131.1269	7.099484	32.79957
939	5.54026	3.2073963	132.2320	131.4634	7.099463	32.79966
940	5.54036	3.2075209	132.5547	131.7842	7.099392	32.80081
941	5.54041	3.2076082	132.9265	132.1537	7.099348	32.80157
942	5.54041	3.2077017	133.2647	132.4898	7.099307	32.80246
943	5.54046	3.2078574	133.6123	132.8353	7.099226	32.80401
944	5.54061	3.2083431	133.9442	133.1652	7.098959	32.80920
945	5.54096	3.2087417	134.2795	133.4984	7.098712	32.81321
946	5.54146	3.2089286	134.6178	133.8346	7.098559	32.81467
947	5.54186	3.2090221	134.9531	134.1679	7.098467	32.81517
948	5.54201	3.2090782	135.2912	134.5039	7.098426	32.81549
949	5.54212	3.2094208	135.6386	134.8491	7.098241	32.81910
950	5.54222	3.2099689	136.0163	135.2245	7.097948	32.82503
951	5.54222	3.2104298	136.3882	135.5941	7.097713	32.83007
952	5.54201	3.2107351	136.7082	135.9122	7.097585	32.83357
953	5.54212	3.2108286	137.0493	136.2511	7.097531	32.83436
954	5.54222	3.2108910	137.4059	136.6055	7.097494	32.83479
955	5.54247	3.2109783	137.7595	136.9570	7.097424	32.83536
956	5.54252	3.2111652	138.1005	137.2959	7.097327	32.83726
957	5.54282	3.2113459	138.4389	137.6322	7.097202	32.83885
958	5.54292	3.2116824	138.7648	137.9561	7.097020	32.84240
959	5.54332	3.2118070	139.1003	138.2896	7.096912	32.84326
960	5.54372	3.2119006	139.4321	138.6193	7.096820	32.84376
961	5.54407	3.2119629	139.7707	138.9558	7.096751	32.84396
962	5.54442	3.2119942	140.1116	139.2946	7.096698	32.84380
963	5.54452	3.2120254	140.4470	139.6279	7.096677	32.84389
964	5.54467	3.2120754	140.7700	139.9489	7.096640	32.84415
965	5.54462	3.2120817	141.1265	140.3032	7.096651	32.84409
966	5.54467	3.2121129	141.4649	140.6396	7.096636	32.84423
967	5.54472	3.2121442	141.8122	140.9847	7.096621	32.84436
968	5.54467	3.2121754	142.1535	141.3239	7.096619	32.84460
969	5.54472	3.2122378	142.5070	141.6752	7.096588	32.84508
970	5.54493	3.2122691	142.8603	142.0263	7.096554	32.84506
971	5.54498	3.2124249	143.1834	142.3474	7.096473	32.84662
972	5.54513	3.2128797	143.5094	142.6714	7.096222	32.85147
973	5.54558	3.2134965	143.8232	142.9832	7.095848	32.85786
974	5.54643	3.2138642	144.1403	143.2984	7.095555	32.86104
975	5.54728	3.2142630	144.4481	143.6043	7.095245	32.86457
976	5.54829	3.2145372	144.7587	143.9130	7.094982	32.86654
977	5.54944	3.2147554	145.0879	144.2401	7.094731	32.86772
978	5.55065	3.2149673	145.4107	144.5610	7.094477	32.86879
979	5.55180	3.2152104	145.7460	144.8942	7.094213	32.87025
980	5.55306	3.2156093	146.0934	145.2394	7.093854	32.87337
981	5.55436	3.2159210	146.4469	145.5907	7.093535	32.87545
982	5.55547	3.2160706	146.8035	145.9451	7.093327	32.87589
983	5.55662	3.2161642	147.1813	146.3206	7.093143	32.87564
984	5.55737	3.2162578	147.5194	146.6566	7.093007	32.87579
985	5.55798	3.2163514	147.8607	146.9957	7.092891	32.87610
986	5.55843	3.2163826	148.1901	147.3231	7.092826	32.87585
987	5.55883	3.2164388	148.4887	147.6198	7.092753	32.87594
988	5.55898	3.2164701	148.8054	147.9346	7.092725	32.87599
989	5.55908	3.2165325	149.1193	148.2465	7.092687	32.87645
990	5.55928	3.2166260	149.4209	148.5463	7.092619	32.87716
991	5.55963	3.2167508	149.7349	148.8583	7.092517	32.87808
992	5.55978	3.2168693	150.0670	149.1883	7.092444	32.87911
993	5.56028	3.2170252	150.3959	149.5152	7.092306	32.88022
994	5.56069	3.2174242	150.7435	149.8606	7.092054	32.88418
995	5.56114	3.2178544	151.0940	150.2089	7.091779	32.88843
996	5.56184	3.2182845	151.4349	150.5478	7.091473	32.89245
997	5.56249	3.2186212	151.7670	150.8778	7.091222	32.89546
998	5.56335	3.2188146	152.1085	151.2171	7.091022	32.89665
999	5.56395	3.2189580	152.4377	151.5443	7.090879	32.89752
1000	5.56440	3.2190828	152.7637	151.8682	7.090764	32.89833
1001	5.56480	3.2191764	153.0773	152.1799	7.090672	32.89885
1002	5.56515	3.2192700	153.4007	152.5013	7.090587	32.89940
1003	5.56551	3.2193886	153.7055	152.8042	7.090488	32.90025
1004	5.56576	3.2195445	154.0040	153.1008	7.090381	32.90162
1005	5.56616	3.2196381	154.3237	153.4185	7.090289	32.90213
1006	5.56636	3.2197629	154.6405	153.7334	7.090206	32.90319
1007	5.56661	3.2198191	154.9636	154.0545	7.090152	32.90343
1008	5.56691	3.2199439	155.2897	154.3785	7.090057	32.90438
1009	5.56706	3.2200375	155.6037	154.6905	7.089996	32.90514
1010	5.56726	3.2201000	155.9235	155.0083	7.089945	32.90549
1011	5.56741	3.2201312	156.2283	155.3112	7.089917	32.90555
1012	5.56761	3.2201625	156.5390	155.6201	7.089883	32.90555
1013	5.56766	3.2201938	156.8619	155.9409	7.089867	32.90570
1014	5.56772	3.2203435	157.1820	156.2590	7.089790	32.90719
1015	5.56797	3.2204371	157.5443	156.6190	7.089717	32.90782
1016	5.56797	3.2205308	157.8919	156.9645	7.089676	32.90871
1017	5.56822	3.2206805	158.2118	157.2824	7.089573	32.91000
1018	5.56862	3.2209238	158.5288	157.5974	7.089403	32.91221
1019	5.56877	3.2210860	158.8273	157.8940	7.089305	32.91375
1020	5.56922	3.2212981	159.1627	158.2273	7.089145	32.91555
1021	5.56972	3.2215164	159.4792	158.5418	7.088975	32.91737
1022	5.56997	3.2216038	159.7843	158.8450	7.088905	32.91796
1023	5.57068	3.2216663	160.0979	159.1567	7.088792	32.91783
1024	5.57083	3.2217599	160.4088	159.4656	7.088731	32.91859
1025	5.57123	3.2218535	160.7531	159.8077	7.088639	32.91909
1026	5.57143	3.2219783	161.0822	160.1348	7.088556	32.92014
1027	5.57173	3.2221905	161.4172	160.4677	7.088415	32.92208
1028	5.57208	3.2223153	161.7525	160.8009	7.088313	32.92299
1029	5.57238	3.2223466	162.0968	161.1430	7.088267	32.92288
1030	5.57269	3.2224090	162.4106	161.4549	7.088204	32.92313
1031	5.57274	3.2224653	162.7308	161.7730	7.088175	32.92356
1032	5.57294	3.2225277	163.0658	162.1059	7.088125	32.92391
1033	5.57309	3.2227461	163.3979	162.4360	7.087999	32.92607
1034	5.57324	3.2229583	163.7148	162.7508	7.087876	32.92817
1035	5.57349	3.2230831	164.0070	163.0413	7.087786	32.92919
1036	5.57364	3.2232703	164.3424	163.3745	7.087676	32.93100
1037	5.57389	3.2234513	164.6411	163.6713	7.087557	32.93265
1038	5.57419	3.2235449	164.9520	163.9802	7.087477	32.93327
1039	5.57449	3.2235762	165.2658	164.2921	7.087430	32.93317
1040	5.57459	3.2237322	165.5887	164.6130	7.087343	32.93468
1041	5.57475	3.2238196	165.9056	164.9279	7.087286	32.93537
1042	5.57500	3.2239133	166.2257	165.2460	7.087213	32.93602
1043	5.57500	3.2240070	166.5454	165.5637	7.087171	32.93692
1044	5.57530	3.2241006	166.8685	165.8847	7.087091	32.93753
1045	5.57545	3.2241319	167.1881	166.2024	7.087063	32.93758
1046	5.57540	3.2241632	167.5174	166.5295	7.087061	32.93782
1047	5.57550	3.2241945	167.8282	166.8384	7.087039	32.93792
1048	5.57560	3.2242570	168.1786	167.1866	7.087002	32.93836
1049	5.57565	3.2242571	168.5016	167.5075	7.087003	32.93815
1050	5.57580	3.2243133	168.8064	167.8104	7.086961	32.93849
1051	5.57575	3.2243446	169.1079	168.1100	7.086958	32.93874
1052	5.57570	3.2244382	169.4067	168.4069	7.086922	32.93971
1053	5.57590	3.2245007	169.7238	168.7220	7.086871	32.94006
1054	5.57590	3.2246567	170.0222	169.0186	7.086796	32.94168
1055	5.57620	3.2247754	170.3418	169.3361	7.086704	32.94257
1056	5.57645	3.2250250	170.6712	169.6634	7.086549	32.94499
1057	5.57695	3.2254867	171.0064	169.9965	7.086251	32.94956
1058	5.57756	3.2257613	171.3260	170.3141	7.086039	32.95192
1059	5.57831	3.2261670	171.6522	170.6383	7.085739	32.95561
1060	5.57896	3.2264416	171.9722	170.9562	7.085521	32.95793
1061	5.57972	3.2267162	172.2951	171.2771	7.085290	32.96014
1062	5.58052	3.2269659	172.6057	171.5857	7.085066	32.96203
1063	5.58137	3.2271781	172.9258	171.9038	7.084856	32.96344
1064	5.58188	3.2273030	173.2245	172.2006	7.084735	32.96421
1065	5.58238	3.2274591	173.5473	172.5214	7.084598	32.96533
1066	5.58278	3.2276152	173.8610	172.8331	7.084473	32.96655
1067	5.58328	3.2277339	174.1751	173.1452	7.084355	32.96724
1068	5.58369	3.2280148	174.4980	173.4660	7.084165	32.96987
1069	5.58409	3.2282271	174.8270	173.7930	7.084011	32.97172
1070	5.58474	3.2283832	175.1439	174.1078	7.083855	32.97269
1071	5.58519	3.2284769	175.4702	174.4321	7.083757	32.97314
1072	5.58569	3.2285706	175.7929	174.7528	7.083653	32.97355
1073	5.58600	3.2286019	176.1463	175.1039	7.083607	32.97344
1074	5.58625	3.2287268	176.5151	175.4703	7.083519	32.97442
1075	5.58655	3.2288455	176.8717	175.8247	7.083427	32.97530
1076	5.58680	3.2289080	177.2126	176.1635	7.083371	32.97559
1077	5.58710	3.2290018	177.5327	176.4816	7.083292	32.97620
1078	5.58720	3.2290955	177.8038	176.7509	7.083236	32.97703
1079	5.58745	3.2292453	178.1084	177.0536	7.083133	32.97833
1080	5.58770	3.2295263	178.4406	177.3837	7.082962	32.98110
1081	5.58831	3.2299259	178.7790	177.7199	7.082684	32.98486
1082	5.58921	3.2300508	179.0898	178.0287	7.082514	32.98524
1083	5.58981	3.2301445	179.3821	178.3192	7.082396	32.98556
1084	5.59037	3.2302320	179.6839	178.6190	7.082289	32.98586
1085	5.59072	3.2302945	179.9851	178.9184	7.082219	32.98608
1086	5.59112	3.2304195	180.3178	179.2489	7.082111	32.98693
1087	5.59162	3.2305444	180.6223	179.5515	7.081990	32.98771
1088	5.59192	3.2307005	180.9117	179.8391	7.081877	32.98904
1089	5.59243	3.2309441	181.2040	180.1295	7.081694	32.99116
1090	5.59298	3.2311939	181.4966	180.4202	7.081500	32.99330
1091	5.59388	3.2313126	181.7832	180.7049	7.081332	32.99361
1092	5.59459	3.2315312	182.0787	180.9986	7.081137	32.99525
1093	5.59534	3.2317185	182.3710	181.2891	7.080952	32.99649
1094	5.59589	3.2318373	182.6665	181.5827	7.080828	32.99715
1095	5.59650	3.2318998	182.9590	181.8733	7.080727	32.99712
1096	5.59685	3.2319311	183.2639	182.1762	7.080674	32.99698
1097	5.59705	3.2319624	183.5777	182.4880	7.080639	32.99698
1098	5.59730	3.2319937	183.8885	182.7969	7.080599	32.99694
1099	5.59745	3.2320250	184.2083	183.1146	7.080571	32.99698
1100	5.59760	3.2320251	184.5254	183.4297	7.080560	32.99668
1101	5.59760	3.2320564	184.8269	183.7293	7.080550	32.99689
1102	5.59765	3.2320877	185.1285	184.0289	7.080534	32.99704
1103	5.59760	3.2321191	185.4302	184.3287	7.080531	32.99730
1104	5.59770	3.2321504	185.7318	184.6284	7.080509	32.99740
1105	5.59755	3.2321817	186.0366	184.9312	7.080518	32.99776
1106	5.59735	3.2322130	186.3381	185.2308	7.080534	32.99816
1107	5.59720	3.2322755	186.6520	185.5427	7.080527	32.99886
1108	5.59710	3.2323318	186.9566	185.8454	7.080517	32.99944
1109	5.59730	3.2323943	187.2675	186.1543	7.080466	32.99980
1110	5.59740	3.2324569	187.5752	186.4600	7.080428	33.00026
1111	5.59760	3.2324882	187.8736	186.7565	7.080393	33.00027
1112	5.59760	3.2326132	188.1784	187.0593	7.080335	33.00153
1113	5.59785	3.2326445	188.4711	187.3501	7.080294	33.00150
1114	5.59795	3.2326446	188.7968	187.6738	7.080289	33.00124
1115	5.59800	3.2327383	189.1288	188.0036	7.080241	33.00208
1116	5.59805	3.2328009	189.4428	188.3156	7.080209	33.00259
1117	5.59810	3.2328322	189.7476	188.6186	7.080193	33.00274
1118	5.59820	3.2328885	190.0369	188.9060	7.080158	33.00314
1119	5.59820	3.2329198	190.3354	189.2025	7.080148	33.00335
1120	5.59825	3.2331384	190.6526	189.5177	7.080034	33.00561
1121	5.59846	3.2335382	190.9661	189.8292	7.079806	33.00979
1122	5.59906	3.2338817	191.2859	190.1469	7.079559	33.01293
1123	5.59951	3.2339755	191.6030	190.4621	7.079460	33.01339
1124	5.60011	3.2340942	191.9107	190.7678	7.079330	33.01399
1125	5.60057	3.2342192	192.2518	191.1067	7.079216	33.01479
1126	5.60097	3.2342818	192.5626	191.4154	7.079141	33.01495
1127	5.60122	3.2343443	192.8582	191.7091	7.079084	33.01527
1128	5.60152	3.2343631	193.1629	192.0119	7.079043	33.01503
1129	5.60177	3.2344382	193.4736	192.3206	7.078980	33.01548
1130	5.60202	3.2345007	193.7660	192.6111	7.078923	33.01580
1131	5.60197	3.2345633	194.0799	192.9230	7.078903	33.01640
1132	5.60207	3.2346196	194.3817	193.2229	7.078868	33.01679
1133	5.60237	3.2346821	194.6861	193.5254	7.078805	33.01705
1134	5.60268	3.2347134	194.9969	193.8341	7.078758	33.01696
1135	5.60263	3.2347448	195.3169	194.1520	7.078755	33.01720
1136	5.60283	3.2348698	195.6367	194.4698	7.078672	33.01826
1137	5.60303	3.2349636	195.9626	194.7936	7.078605	33.01897
1138	5.60328	3.2350886	196.2736	195.1026	7.078516	33.01998
1139	5.60353	3.2351761	196.5903	195.4172	7.078446	33.02057
1140	5.60388	3.2353323	196.8981	195.7230	7.078327	33.02184
1141	5.60428	3.2355198	197.2057	196.0287	7.078186	33.02342
1142	5.60459	3.2356448	197.4984	196.3195	7.078090	33.02439
1143	5.60514	3.2357324	197.7938	196.6130	7.077982	33.02469
1144	5.60554	3.2358574	198.0955	196.9128	7.077873	33.02557
1145	5.60599	3.2359824	198.3911	197.2065	7.077758	33.02639
1146	5.60640	3.2360762	198.6954	197.5088	7.077666	33.02691
1147	5.60660	3.2361700	199.0066	197.8180	7.077599	33.02762
1148	5.60715	3.2362950	199.3414	198.1506	7.077473	33.02833
1149	5.60745	3.2363826	199.6827	198.4897	7.077397	33.02885
1150	5.60795	3.2364139	200.0148	198.8197	7.077326	33.02855
1151	5.60825	3.2364452	200.3378	199.1406	7.077280	33.02845
1152	5.60836	3.2364765	200.6424	199.4432	7.077258	33.02856
1153	5.60871	3.2365079	200.9592	199.7580	7.077205	33.02841
1154	5.60876	3.2365704	201.2547	200.0516	7.077173	33.02892
1155	5.60901	3.2366018	201.5593	200.3543	7.077132	33.02888
1156	5.60906	3.2366643	201.8395	200.6326	7.077100	33.02940
1157	5.60921	3.2366332	202.1444	200.9355	7.077104	33.02875
1158	5.60921	3.2366645	202.4523	201.2414	7.077095	33.02895
1159	5.60931	3.2366958	202.7597	201.5469	7.077073	33.02906
1160	5.60941	3.2367272	203.0769	201.8620	7.077051	33.02915
1161	5.60936	3.2367273	203.3965	202.1795	7.077065	33.02905
1162	5.60946	3.2367898	203.7226	202.5035	7.077027	33.02950
1163	5.60956	3.2368212	204.0515	202.8303	7.077006	33.02959
1164	5.60956	3.2368837	204.3745	203.1512	7.076980	33.03014
1165	5.60971	3.2368838	204.6856	203.4602	7.076969	33.02984
1166	5.60971	3.2369089	204.9780	203.7508	7.076962	33.02998
1167	5.60986	3.2369403	205.3038	204.0745	7.076934	33.03002
1168	5.60981	3.2369716	205.5962	204.3650	7.076931	33.03028
1169	5.60996	3.2370029	205.8919	204.6588	7.076903	33.03034
1170	5.60986	3.2370342	206.1964	204.9613	7.076905	33.03065
1171	5.61011	3.2370656	206.4920	205.2550	7.076865	33.03061
1172	5.61011	3.2370969	206.7965	205.5575	7.076855	33.03081
1173	5.61021	3.2371595	207.0862	205.8453	7.076817	33.03128
1174	5.61032	3.2372533	207.4029	206.1599	7.076762	33.03208
1175	5.61052	3.2373471	207.7196	206.4746	7.076695	33.03279
1176	5.61062	3.2373784	208.0488	206.8016	7.076674	33.03289
1177	5.61082	3.2374097	208.3746	207.1254	7.076640	33.03288
1178	5.61097	3.2374411	208.6947	207.4434	7.076612	33.03293
1179	5.61102	3.2375037	209.0024	207.7490	7.076580	33.03344
1180	5.61107	3.2375037	209.3008	208.0455	7.076581	33.03324
1181	5.61122	3.2375288	209.6241	208.3667	7.076556	33.03322
1182	5.61137	3.2375602	209.9377	208.6783	7.076528	33.03327
1183	5.61132	3.2376227	210.2329	208.9716	7.076508	33.03388
1184	5.61142	3.2377478	210.5134	209.2503	7.076437	33.03506
1185	5.61167	3.2378103	210.7904	209.5254	7.076379	33.03538
1186	5.61187	3.2379041	211.0741	209.8073	7.076311	33.03611
1187	5.61212	3.2379667	211.3754	210.1066	7.076254	33.03642
1188	5.61233	3.2379980	211.6985	210.4277	7.076220	33.03642
1189	5.61258	3.2380919	212.0063	210.7334	7.076147	33.03708
1190	5.61268	3.2381482	212.3320	211.0570	7.076113	33.03746
1191	5.61298	3.2382108	212.6611	211.3840	7.076050	33.03771
1192	5.61313	3.2383046	212.9810	211.7018	7.075989	33.03847
1193	5.61328	3.2383984	213.2857	212.0045	7.075928	33.03923
1194	5.61358	3.2384922	213.5963	212.3131	7.075849	33.03984
1195	5.61378	3.2385860	213.8829	212.5978	7.075781	33.04056
1196	5.61388	3.2386486	214.1755	212.8884	7.075743	33.04103
1197	5.61414	3.2387112	214.4616	213.1727	7.075685	33.04135
1198	5.61424	3.2387675	214.7418	213.4511	7.075650	33.04175
1199	5.61444	3.2388926	215.0191	213.7266	7.075566	33.04283
1200	5.61469	3.2389864	215.3178	214.0233	7.075492	33.04350
1201	5.61484	3.2390802	215.6253	214.3289	7.075431	33.04426
1202	5.61514	3.2391428	215.9239	214.6254	7.075368	33.04452
1203	5.61529	3.2392054	216.2408	214.9403	7.075324	33.04493
1204	5.61554	3.2392055	216.5699	215.2672	7.075300	33.04452
1205	5.61554	3.2392680	216.8867	215.5820	7.075274	33.04507
1206	5.61569	3.2392994	217.2004	215.8937	7.075246	33.04512
1207	5.61589	3.2393620	217.5021	216.1934	7.075196	33.04549
1208	5.61605	3.2393621	217.7884	216.4777	7.075183	33.04520
1209	5.61610	3.2394184	218.0868	216.7742	7.075154	33.04564
1210	5.61625	3.2394497	218.3642	217.0498	7.075126	33.04571
1211	5.61615	3.2394810	218.6354	217.3193	7.075128	33.04603
1212	5.61635	3.2395749	218.9153	217.5973	7.075060	33.04675
1213	5.61645	3.2396375	219.2082	217.8883	7.075022	33.04722
1214	5.61665	3.2397000	219.5156	218.1937	7.074971	33.04758
1215	5.61675	3.2397626	219.8356	218.5116	7.074933	33.04803
1216	5.61695	3.2398565	220.1738	218.8476	7.074866	33.04873
1217	5.61710	3.2399191	220.4905	219.1622	7.074822	33.04913
1218	5.61720	3.2399504	220.8104	219.4800	7.074801	33.04923
1219	5.61735	3.2399817	221.1155	219.7831	7.074772	33.04928
1220	5.61745	3.2400381	221.4351	220.1006	7.074738	33.04967
1221	5.61750	3.2400694	221.7366	220.4001	7.074722	33.04982
1222	5.61765	3.2400695	222.0321	220.6937	7.074710	33.04953
1223	5.61780	3.2401009	222.3277	220.9873	7.074682	33.04959
1224	5.61775	3.2401634	222.6079	221.2657	7.074662	33.05021
1225	5.61786	3.2401635	222.8884	221.5444	7.074655	33.04997
1226	5.61796	3.2402886	223.1685	221.8227	7.074584	33.05115
1227	5.61811	3.2404137	223.4672	222.1193	7.074506	33.05227
1228	5.61816	3.2404763	223.7592	222.4095	7.074474	33.05278
1229	5.61846	3.2405076	224.0643	222.7126	7.074427	33.05269
1230	5.61856	3.2405702	224.3627	223.0090	7.074389	33.05316
1231	5.61866	3.2406640	224.6733	223.3175	7.074334	33.05396
1232	5.61876	3.2406891	224.9872	223.6293	7.074316	33.05400
1233	5.61886	3.2407205	225.2885	223.9287	7.074294	33.05410
1234	5.61906	3.2407831	225.6026	224.2407	7.074243	33.05446
1235	5.61911	3.2407832	225.9101	224.5462	7.074244	33.05426
1236	5.61906	3.2408458	226.1935	224.8278	7.074224	33.05488
1237	5.61906	3.2408771	226.4800	225.1123	7.074214	33.05509
1238	5.61916	3.2409397	226.7694	225.3998	7.074175	33.05556
1239	5.61931	3.2409710	227.0495	225.6781	7.074146	33.05562
1240	5.61946	3.2410336	227.3359	225.9626	7.074102	33.05604
1241	5.61936	3.2410337	227.6345	226.2592	7.074121	33.05600
1242	5.61946	3.2410963	227.9330	226.5557	7.074082	33.05646
1243	5.61946	3.2411276	228.2161	226.8370	7.074072	33.05667
1244	5.61972	3.2411590	228.5207	227.1396	7.074032	33.05663
1245	5.61961	3.2411903	228.8253	227.4422	7.074035	33.05693
1246	5.61977	3.2412217	229.1392	227.7540	7.074007	33.05699
1247	5.61982	3.2412530	229.4684	228.0811	7.073992	33.05713
1248	5.61992	3.2412844	229.7819	228.3925	7.073970	33.05723
1249	5.61997	3.2414032	230.1049	228.7134	7.073909	33.05837
1250	5.62037	3.2415596	230.3973	229.0039	7.073784	33.05959
1251	5.62057	3.2416847	230.6960	229.3005	7.073700	33.06067
1252	5.62092	3.2418098	230.9884	229.5910	7.073597	33.06159
1253	5.62122	3.2419349	231.2777	229.8785	7.073501	33.06257
1254	5.62142	3.2420538	231.5767	230.1755	7.073421	33.06357
1255	5.62193	3.2422726	231.8749	230.4717	7.073251	33.06540
1256	5.62228	3.2424915	232.1827	230.7774	7.073099	33.06738
1257	5.62288	3.2426166	232.4871	231.0799	7.072966	33.06805
1258	5.62328	3.2426792	232.7860	231.3768	7.072890	33.06822
1259	5.62369	3.2427356	233.0872	231.6759	7.072818	33.06831
1260	5.62394	3.2428294	233.4011	231.9877	7.072745	33.06897
1261	5.62429	3.2429858	233.6875	232.2723	7.072626	33.07026
1262	5.62459	3.2430797	233.9889	232.5717	7.072546	33.07087
1263	5.62499	3.2431110	234.2841	232.8650	7.072486	33.07069
1264	5.62525	3.2431736	234.5678	233.1467	7.072429	33.07101
1265	5.62540	3.2432363	234.8814	233.4583	7.072385	33.07141
1266	5.62560	3.2432989	235.1862	233.7611	7.072334	33.07177
1267	5.62570	3.2433927	235.4938	234.0666	7.072279	33.07259
1268	5.62585	3.2434491	235.7953	234.3661	7.072238	33.07293
1269	5.62610	3.2435430	236.0909	234.6598	7.072164	33.07360
1270	5.62635	3.2435743	236.3924	234.9593	7.072124	33.07356
1271	5.62655	3.2436369	236.6880	235.2529	7.072073	33.07392
1272	5.62670	3.2436995	236.9895	235.5524	7.072028	33.07433
1273	5.62690	3.2437934	237.2788	235.8398	7.071961	33.07505
1274	5.62706	3.2439185	237.5650	236.1241	7.071883	33.07618
1275	5.62721	3.2440749	237.8635	236.4206	7.071789	33.07765
1276	5.62751	3.2441313	238.1560	236.7112	7.071729	33.07785
1277	5.62791	3.2441627	238.4670	237.0201	7.071670	33.07766
1278	5.62806	3.2442565	238.7688	237.3199	7.071609	33.07842
1279	5.62836	3.2442879	239.0641	237.6132	7.071562	33.07833
1280	5.62851	3.2443193	239.4049	237.9517	7.071535	33.07837
1281	5.62877	3.2443506	239.7068	238.2517	7.071494	33.07833
1282	5.62887	3.2443820	240.0174	238.5602	7.071472	33.07844
1283	5.62892	3.2444133	240.3222	238.8630	7.071456	33.07859
1284	5.62897	3.2444759	240.6175	239.1563	7.071424	33.07910
1285	5.62912	3.2445073	240.9160	239.4528	7.071396	33.07916
1286	5.62922	3.2445699	241.2174	239.7523	7.071358	33.07962
1287	5.62932	3.2446325	241.5129	240.0457	7.071319	33.08009
1288	5.62947	3.2446952	241.8118	240.3426	7.071274	33.08050
1289	5.62967	3.2447578	242.1252	240.6540	7.071224	33.08086
1290	5.62992	3.2447891	242.4207	240.9475	7.071183	33.08082
1291	5.62987	3.2448768	242.7165	241.2414	7.071150	33.08171
1292	5.63012	3.2449394	243.0212	241.5440	7.071093	33.08202
1293	5.63037	3.2450333	243.3196	241.8404	7.071020	33.08269
1294	5.63063	3.2451584	243.6270	242.1458	7.070930	33.08371
1295	5.63083	3.2452211	243.9378	242.4545	7.070879	33.08407
1296	5.63098	3.2452212	244.2334	242.7481	7.070867	33.08377
1297	5.63118	3.2452838	244.5411	243.0538	7.070817	33.08413
1298	5.63123	3.2452839	244.8366	243.3473	7.070817	33.08394
1299	5.63138	3.2453778	245.1261	243.6348	7.070756	33.08471
1300	5.63158	3.2454717	245.4181	243.9249	7.070689	33.08543
1301	5.63178	3.2455343	245.7139	244.2188	7.070638	33.08580
1302	5.63198	3.2455969	246.0002	244.5032	7.070586	33.08617
1303	5.63218	3.2456845	246.3047	244.8056	7.070523	33.08681
1304	5.63239	3.2457784	246.6000	245.0989	7.070455	33.08753
1305	5.63259	3.2459036	246.9137	245.4106	7.070372	33.08859
1306	5.63284	3.2459975	247.2125	245.7073	7.070298	33.08926
1307	5.63309	3.2460289	247.5291	246.0218	7.070258	33.08921
1308	5.63334	3.2461228	247.8308	246.3215	7.070185	33.08988
1309	5.63359	3.2461854	248.1385	246.6272	7.070128	33.09019
1310	5.63369	3.2462168	248.4432	246.9298	7.070106	33.09029
1311	5.63394	3.2462481	248.7474	247.2320	7.070065	33.09025
1312	5.63399	3.2462795	249.0646	247.5470	7.070050	33.09040
1313	5.63420	3.2463109	249.3754	247.8558	7.070016	33.09040
1314	5.63425	3.2463672	249.6768	248.1551	7.069987	33.09084
1315	5.63440	3.2463986	249.9842	248.4605	7.069959	33.09090
1316	5.63440	3.2464300	250.2703	248.7447	7.069949	33.09111
1317	5.63465	3.2464926	250.5631	249.0355	7.069892	33.09143
1318	5.63470	3.2465552	250.8588	249.3293	7.069859	33.09194
1319	5.63490	3.2465866	251.1662	249.6346	7.069825	33.09195
1320	5.63485	3.2466180	251.4619	249.9283	7.069822	33.09221
1321	5.63500	3.2466806	251.7691	250.2335	7.069777	33.09262
1322	5.63515	3.2467120	252.0557	250.5181	7.069749	33.09268
1323	5.63530	3.2467433	252.3148	250.7755	7.069720	33.09276
1324	5.63525	3.2467434	252.5127	250.9720	7.069730	33.09271
1325	5.63545	3.2467121	252.6194	251.0780	7.069724	33.09211
1326	5.63545	3.2467121	252.6558	251.1142	7.069725	33.09209
1327	5.63550	3.2467121	252.6194	251.0780	7.069718	33.09206
1328	5.63550	3.2467121	252.5647	251.0237	7.069717	33.09209
1329	5.63545	3.2467747	252.5372	250.9964	7.069690	33.09286
1330	5.63555	3.2467434	252.5219	250.9812	7.069693	33.09241
1331	5.63555	3.2467434	252.5341	250.9933	7.069693	33.09241
1332	5.63555	3.2467747	252.5524	251.0115	7.069677	33.09275
1333	5.63565	3.2467747	252.5740	251.0329	7.069665	33.09264
1334	5.63570	3.2467434	252.5770	251.0359	7.069676	33.09224
1335	5.63576	3.2467747	252.5740	251.0329	7.069653	33.09254
1336	5.63581	3.2467747	252.5618	251.0208	7.069647	33.09250
1337	5.63586	3.2467747	252.5435	251.0027	7.069640	33.09246
1338	5.63591	3.2467434	252.5007	250.9602	7.069649	33.09208
1339	5.63591	3.2467433	252.4218	250.8818	7.069647	33.09212
1340	5.63596	3.2467433	252.2817	250.7426	7.069638	33.09213
1341	5.63596	3.2467432	252.1048	250.5669	7.069634	33.09222
1342	5.63606	3.2467432	251.9012	250.3647	7.069617	33.09222
1343	5.63611	3.2467118	251.6817	250.1466	7.069622	33.09193
1344	5.63611	3.2467430	251.4689	249.9352	7.069601	33.09238
1345	5.63611	3.2467430	251.2706	249.7383	7.069596	33.09248
1346	5.63606	3.2467492	251.0605	249.5296	7.069595	33.09270
1347	5.63611	3.2467116	250.8414	249.3120	7.069603	33.09234
1348	5.63611	3.2466802	250.6129	249.0849	7.069614	33.09210
1349	5.63616	3.2466802	250.3692	248.8429	7.069603	33.09216
1350	5.63606	3.2466801	250.1224	248.5977	7.069609	33.09238
1351	5.63616	3.2466800	249.8698	248.3469	7.069591	33.09241
1352	5.63611	3.2466799	249.6170	248.0958	7.069592	33.09258
1353	5.63621	3.2466486	249.3612	247.8416	7.069590	33.09225
1354	5.63606	3.2466485	249.0931	247.5754	7.069602	33.09253
1355	5.63606	3.2466484	248.8251	247.3091	7.069596	33.09267
1356	5.63601	3.2466171	248.5574	247.0433	7.069613	33.09249
1357	5.63596	3.2465544	248.2891	246.7768	7.069646	33.09197
1358	5.63581	3.2465543	248.0305	246.5199	7.069659	33.09224
1359	5.63560	3.2465230	247.7655	246.2567	7.069694	33.09221
1360	5.63560	3.2464604	247.5065	245.9994	7.069721	33.09163
1361	5.63560	3.2464603	247.2447	245.7393	7.069715	33.09176
1362	5.63550	3.2464289	246.9797	245.4761	7.069738	33.09164
1363	5.63535	3.2463976	246.7086	245.2068	7.069766	33.09156
1364	5.63525	3.2463662	246.4344	244.9344	7.069789	33.09144
1365	5.63515	3.2463411	246.1634	244.6652	7.069808	33.09139
1366	5.63505	3.2463098	245.8834	244.3871	7.069831	33.09127
1367	5.63490	3.2462471	245.6030	244.1086	7.069876	33.09085
1368	5.63485	3.2462158	245.3292	243.8366	7.069892	33.09068
1369	5.63480	3.2461844	245.0551	243.5643	7.069909	33.09051
1370	5.63455	3.2461531	244.7685	243.2797	7.069950	33.09054
1371	5.63455	3.2460905	244.5035	243.0165	7.069977	33.08997
1372	5.63435	3.2460278	244.2262	242.7410	7.070028	33.08959
1373	5.63415	3.2459652	243.9645	242.4810	7.070080	33.08921
1374	5.63389	3.2459026	243.6905	242.2089	7.070137	33.08888
1375	5.63384	3.2458087	243.4194	241.9396	7.070186	33.08801
1376	5.63369	3.2457774	243.1392	241.6612	7.070215	33.08794
1377	5.63344	3.2456835	242.8561	241.3800	7.070289	33.08726
1378	5.63319	3.2456521	242.5788	241.1045	7.070330	33.08729
1379	5.63314	3.2455957	242.2955	240.8231	7.070359	33.08684
1380	5.63289	3.2455644	242.0124	240.5419	7.070401	33.08687
1381	5.63274	3.2455018	241.7293	240.2607	7.070446	33.08645
1382	5.63264	3.2454391	241.4430	239.9763	7.070484	33.08599
1383	5.63249	3.2453765	241.1537	239.6889	7.070529	33.08557
1384	5.63229	3.2453139	240.8733	239.4104	7.070580	33.08520
1385	5.63208	3.2452200	240.5991	239.1380	7.070648	33.08447
1386	5.63183	3.2451887	240.3134	238.8542	7.070689	33.08450
1387	5.63163	3.2451261	240.0325	238.5752	7.070740	33.08413
1388	5.63133	3.2450634	239.7464	238.2910	7.070804	33.08386
1389	5.63133	3.2449695	239.4540	238.0006	7.070847	33.08294
1390	5.63123	3.2449382	239.1677	237.7162	7.070869	33.08282
1391	5.63103	3.2448756	238.8757	237.4261	7.070920	33.08246
1392	5.63093	3.2448505	238.5587	237.1111	7.070938	33.08243
1393	5.63083	3.2447878	238.2601	236.8146	7.070977	33.08197
1394	5.63053	3.2447252	237.9646	236.5210	7.071040	33.08170
1395	5.63037	3.2446626	237.6663	236.2247	7.071085	33.08129
1396	5.63022	3.2446312	237.3740	235.9344	7.071113	33.08122
1397	5.63002	3.2445686	237.0814	235.6437	7.071164	33.08086
1398	5.62992	3.2445373	236.7921	235.3563	7.071186	33.08074
1399	5.62972	3.2445059	236.5091	235.0752	7.071221	33.08073
1400	5.62962	3.2444433	236.2256	234.7935	7.071260	33.08026
1401	5.62952	3.2443807	235.9392	234.5091	7.071299	33.07979
1402	5.62932	3.2442868	235.6501	234.2219	7.071366	33.07907
1403	5.62917	3.2442242	235.3516	233.9254	7.071411	33.07865
1404	5.62882	3.2441616	235.0653	233.6410	7.071481	33.07843
1405	5.62871	3.2440740	234.7668	233.3444	7.071532	33.07769
1406	5.62851	3.2439801	234.4926	233.0721	7.071600	33.07696
1407	5.62821	3.2439175	234.2124	232.7937	7.071664	33.07669
1408	5.62806	3.2438861	233.9382	232.5213	7.071693	33.07661
1409	5.62796	3.2438548	233.6550	232.2400	7.071715	33.07650
1410	5.62766	3.2437609	233.3810	231.9678	7.071795	33.07587
1411	5.62761	3.2436983	233.1007	231.6894	7.071828	33.07535
1412	5.62746	3.2436670	232.8205	231.4110	7.071857	33.07528
1413	5.62731	3.2436231	232.5339	231.1264	7.071892	33.07507
1414	5.62716	3.2435730	232.2476	230.8419	7.071930	33.07479
1415	5.62685	3.2435104	231.9494	230.5456	7.071994	33.07453
1416	5.62665	3.2434165	231.6451	230.2434	7.072061	33.07382
1417	5.62655	3.2432977	231.3429	229.9432	7.072129	33.07272
1418	5.62630	3.2432038	231.0505	229.6527	7.072202	33.07205
1419	5.62605	3.2431412	230.7524	229.3566	7.072259	33.07173
1420	5.62580	3.2430473	230.4478	229.0540	7.072333	33.07107
1421	5.62545	3.2429535	230.1404	228.7486	7.072418	33.07050
1422	5.62525	3.2428908	229.8386	228.4488	7.072469	33.07014
1423	5.62494	3.2427657	229.5369	228.1491	7.072565	33.06917
1424	5.62454	3.2426469	229.2356	227.8498	7.072670	33.06837
1425	5.62409	3.2424905	228.9430	227.5592	7.072802	33.06719
1426	5.62384	3.2423966	228.6385	227.2567	7.072875	33.06653
1427	5.62344	3.2422090	228.3430	226.9630	7.073017	33.06494
1428	5.62313	3.2420839	228.0476	226.6696	7.073113	33.06397
1429	5.62283	3.2419650	227.7401	226.3641	7.073205	33.06307
1430	5.62233	3.2419337	227.4138	226.0400	7.073277	33.06337
1431	5.62198	3.2417461	227.1063	225.7345	7.073411	33.06175
1432	5.62168	3.2416835	226.7929	225.4232	7.073474	33.06149
1433	5.62137	3.2415584	226.4973	225.1295	7.073571	33.06052
1434	5.62107	3.2415270	226.1928	224.8270	7.073617	33.06061
1435	5.62082	3.2414957	225.8698	224.5061	7.073658	33.06066
1436	5.62072	3.2414018	225.5559	224.1943	7.073712	33.05985
1437	5.62067	3.2412830	225.2392	223.8798	7.073773	33.05871
1438	5.62047	3.2412516	224.9440	223.5865	7.073808	33.05870
1439	5.62037	3.2411578	224.6242	223.2687	7.073862	33.05790
1440	5.62017	3.2411264	224.3225	222.9690	7.073897	33.05789
1441	5.62012	3.2410951	224.0181	222.6667	7.073913	33.05773
1442	5.62002	3.2410637	223.7135	222.3640	7.073934	33.05763
1443	5.61987	3.2410011	223.4119	222.0645	7.073979	33.05722
1444	5.61992	3.2409698	223.1043	221.7588	7.073982	33.05696
1445	5.61977	3.2409072	222.7908	221.4474	7.074027	33.05656
1446	5.61966	3.2408759	222.4890	221.1475	7.074049	33.05645
1447	5.61961	3.2408133	222.1720	220.8327	7.074080	33.05595
1448	5.61961	3.2408132	221.8583	220.5210	7.074073	33.05610
1449	5.61946	3.2407818	221.5358	220.2006	7.074101	33.05606
1450	5.61931	3.2406880	221.2219	219.8888	7.074162	33.05530
1451	5.61931	3.2406316	220.8897	219.5588	7.074184	33.05482
1452	5.61911	3.2406003	220.5762	219.2474	7.074218	33.05482
1453	5.61906	3.2405377	220.2532	218.9265	7.074249	33.05432
1454	5.61896	3.2404751	219.9396	218.6149	7.074288	33.05387
1455	5.61871	3.2403500	219.6289	218.3062	7.074377	33.05285
1456	5.61856	3.2403186	219.3212	218.0006	7.074405	33.05280
1457	5.61856	3.2402248	219.0226	217.7039	7.074448	33.05188
1458	5.61836	3.2401622	218.7121	217.3954	7.074498	33.05153
1459	5.61821	3.2401621	218.4075	217.0928	7.074510	33.05182
1460	5.61811	3.2401308	218.1055	216.7928	7.074532	33.05172
1461	5.61801	3.2400370	217.7919	216.4813	7.074587	33.05091
1462	5.61780	3.2399806	217.4569	216.1485	7.074633	33.05063
1463	5.61770	3.2398868	217.1340	215.8277	7.074688	33.04983
1464	5.61760	3.2398242	216.8051	215.5009	7.074725	33.04938
1465	5.61745	3.2397303	216.4791	215.1771	7.074786	33.04863
1466	5.61725	3.2396365	216.1504	214.8504	7.074852	33.04793
1467	5.61705	3.2396051	215.8180	214.5202	7.074886	33.04793
1468	5.61700	3.2395738	215.4893	214.1937	7.074901	33.04779
1469	5.61685	3.2395112	215.1544	213.8610	7.074945	33.04740
1470	5.61665	3.2394486	214.8404	213.5490	7.074996	33.04704
1471	5.61655	3.2394173	214.5300	213.2407	7.075018	33.04694
1472	5.61645	3.2393922	214.2161	212.9288	7.075036	33.04691
1473	5.61635	3.2393609	213.9085	212.6232	7.075058	33.04680
1474	5.61640	3.2393295	213.5915	212.3083	7.075061	33.04655
1475	5.61620	3.2392982	213.2687	211.9876	7.075095	33.04656
1476	5.61605	3.2392356	212.9400	211.6610	7.075139	33.04616
1477	5.61589	3.2391417	212.6048	211.3280	7.075199	33.04541
1478	5.61589	3.2391104	212.2726	210.9980	7.075208	33.04522
1479	5.61574	3.2390166	211.9437	210.6713	7.075268	33.04447
1480	5.61544	3.2389852	211.6146	210.3443	7.075314	33.04457
1481	5.61529	3.2389226	211.2767	210.0086	7.075358	33.04418
1482	5.61524	3.2388288	210.9413	209.6753	7.075406	33.04333
1483	5.61499	3.2387412	210.6248	209.3610	7.075476	33.04274
1484	5.61474	3.2386162	210.3140	209.0521	7.075566	33.04173
1485	5.61454	3.2385536	209.9818	208.7221	7.075616	33.04138
1486	5.61434	3.2384598	209.6682	208.4105	7.075683	33.04067
1487	5.61409	3.2383659	209.3395	208.0840	7.075755	33.04002
1488	5.61388	3.2382721	209.0103	207.7569	7.075822	33.03932
1489	5.61368	3.2381783	208.6784	207.4271	7.075889	33.03862
1490	5.61333	3.2380907	208.3493	207.1002	7.075971	33.03814
1491	5.61318	3.2380281	208.0080	206.7611	7.076014	33.03774
1492	5.61298	3.2379343	207.6731	206.4284	7.076081	33.03704
1493	5.61263	3.2378405	207.3290	206.0865	7.076166	33.03650
1494	5.61238	3.2377467	206.9876	205.7473	7.076238	33.03585
1495	5.61223	3.2376841	206.6525	205.4144	7.076282	33.03546
1496	5.61202	3.2376528	206.3203	205.0844	7.076316	33.03546
1497	5.61182	3.2375902	205.9882	204.7545	7.076366	33.03512
1498	5.61172	3.2375276	205.6624	204.4308	7.076404	33.03467
1499	5.61157	3.2375025	205.3335	204.1040	7.076428	33.03469
1500	5.61137	3.2374399	205.0015	203.7741	7.076478	33.03435
1501	5.61127	3.2373774	204.6755	203.4503	7.076516	33.03390
1502	5.61112	3.2373148	204.3498	203.1266	7.076560	33.03350
1503	5.61097	3.2372522	204.0113	202.7903	7.076604	33.03311
1504	5.61092	3.2372521	203.6671	202.4483	7.076602	33.03332
1505	5.61082	3.2371270	203.3202	202.1038	7.076673	33.03218
1506	5.61052	3.2370957	202.9727	201.7585	7.076718	33.03229
1507	5.61052	3.2370331	202.6162	201.4042	7.076743	33.03176
1508	5.61032	3.2369705	202.2724	201.0627	7.076793	33.03142
1509	5.61021	3.2369392	201.9310	200.7235	7.076814	33.03133
1510	5.61021	3.2368829	201.5959	200.3905	7.076836	33.03086
1511	5.61006	3.2368828	201.2581	200.0549	7.076847	33.03117
1512	5.60976	3.2368202	200.9229	199.7219	7.076909	33.03093
1513	5.60996	3.2367889	200.6029	199.4040	7.076894	33.03053
1514	5.60961	3.2367575	200.2739	199.0771	7.076946	33.03069
1515	5.60966	3.2367262	199.9357	198.7411	7.076949	33.03045
1516	5.60961	3.2366949	199.5916	198.3992	7.076963	33.03031
1517	5.60951	3.2366323	199.2472	198.0571	7.077001	33.02987
1518	5.60951	3.2366322	198.9030	197.7150	7.076993	33.03004
1519	5.60931	3.2365696	198.5591	197.3734	7.077043	33.02970
1520	5.60921	3.2365695	198.1994	197.0160	7.077047	33.02998
1521	5.60916	3.2365381	197.8493	196.6681	7.077062	33.02984
1522	5.60901	3.2365068	197.4988	196.3199	7.077089	33.02981
1523	5.60896	3.2364442	197.1485	195.9718	7.077120	33.02932
1524	5.60881	3.2363817	196.8102	195.6358	7.077164	33.02893
1525	5.60876	3.2363503	196.4662	195.2940	7.077179	33.02880
1526	5.60846	3.2362628	196.1339	194.9638	7.077254	33.02827
1527	5.60820	3.2362002	195.7959	194.6279	7.077311	33.02797
1528	5.60795	3.2361376	195.4576	194.2918	7.077367	33.02768
1529	5.60770	3.2360438	195.1165	193.9529	7.077439	33.02703
1530	5.60730	3.2359188	194.7724	193.6110	7.077547	33.02618
1531	5.60705	3.2358562	194.4279	193.2688	7.077603	33.02589
1532	5.60660	3.2357374	194.0745	192.9176	7.077713	33.02516
1533	5.60640	3.2356749	193.7213	192.5668	7.077763	33.02482
1534	5.60584	3.2355498	193.3617	192.2095	7.077889	33.02413
1535	5.60554	3.2354560	193.0053	191.8553	7.077967	33.02354
1536	5.60509	3.2352686	192.6492	191.5015	7.078114	33.02204
1537	5.60459	3.2351435	192.2927	191.1472	7.078234	33.02129
1538	5.60433	3.2349935	191.9362	190.7931	7.078335	33.02002
1539	5.60378	3.2349310	191.5890	190.4481	7.078429	33.02002
1540	5.60338	3.2348060	191.2571	190.1183	7.078537	33.01916
1541	5.60318	3.2347434	190.9125	189.7759	7.078586	33.01882
1542	5.60293	3.2347121	190.5748	189.4404	7.078626	33.01888
1543	5.60268	3.2346495	190.2305	189.0983	7.078682	33.01859
1544	5.60258	3.2345870	189.8802	188.7502	7.078720	33.01815
1545	5.60227	3.2344994	189.5175	188.3899	7.078795	33.01764
1546	5.60212	3.2344056	189.1518	188.0266	7.078854	33.01691
1547	5.60172	3.2342806	188.7832	187.6603	7.078961	33.01607
1548	5.60132	3.2340307	188.4270	187.3064	7.079134	33.01381
1549	5.60087	3.2337558	188.0612	186.9429	7.079326	33.01132
1550	5.60047	3.2335684	187.7139	186.5978	7.079467	33.00977
1551	5.59996	3.2333559	187.3573	186.2435	7.079633	33.00803
1552	5.59956	3.2331685	187.0103	185.8988	7.079773	33.00647
1553	5.59906	3.2330747	186.6571	185.5477	7.079876	33.00608
1554	5.59896	3.2329810	186.2973	185.1903	7.079930	33.00529
1555	5.59866	3.2328622	185.9409	184.8362	7.080021	33.00442
1556	5.59851	3.2328309	185.5905	184.4880	7.080049	33.00439
1557	5.59830	3.2327683	185.2465	184.1462	7.080098	33.00405
1558	5.59820	3.2327058	184.8869	183.7889	7.080136	33.00362
1559	5.59810	3.2326432	184.5304	183.4347	7.080173	33.00318
1560	5.59800	3.2325807	184.1706	183.0772	7.080210	33.00275
1561	5.59795	3.2325494	183.8114	182.7203	7.080224	33.00262
1562	5.59780	3.2324868	183.4430	182.3542	7.080267	33.00225
1563	5.59780	3.2324243	183.0772	181.9908	7.080292	33.00172
1564	5.59780	3.2323305	182.7210	181.6368	7.080333	33.00083
1565	5.59780	3.2323304	182.3522	181.2704	7.080324	33.00101
1566	5.59775	3.2322741	181.9957	180.9161	7.080352	33.00060
1567	5.59770	3.2322428	181.6392	180.5619	7.080367	33.00047
1568	5.59770	3.2322114	181.2863	180.2112	7.080375	33.00029
1569	5.59765	3.2320864	180.9324	179.8596	7.080439	32.99910
1570	5.59755	3.2320239	180.5731	179.5026	7.080476	32.99867
1571	5.59725	3.2318677	180.2198	179.1516	7.080587	32.99737
1572	5.59680	3.2316865	179.8542	178.7883	7.080730	32.99595
1573	5.59634	3.2314679	179.4945	178.4309	7.080893	32.99409
1574	5.59569	3.2312805	179.1472	178.0858	7.081064	32.99278
1575	5.59494	3.2310682	178.7844	177.7253	7.081261	32.99130
1576	5.59418	3.2309120	178.4190	177.3622	7.081428	32.99045
1577	5.59358	3.2307558	178.0566	177.0021	7.081577	32.98945
1578	5.59283	3.2306059	177.6939	176.6417	7.081741	32.98867
1579	5.59233	3.2304185	177.3317	176.2818	7.081894	32.98722
1580	5.59177	3.2302624	176.9658	175.9182	7.082036	32.98617
1581	5.59117	3.2300500	176.6003	175.5550	7.082214	32.98454
1582	5.59047	3.2298314	176.2349	175.1920	7.082408	32.98294
1583	5.58981	3.2296753	175.8723	174.8316	7.082562	32.98199
1584	5.58926	3.2296190	175.5006	174.4623	7.082652	32.98208
1585	5.58886	3.2294629	175.1228	174.0869	7.082775	32.98089
1586	5.58841	3.2293067	174.7665	173.7329	7.082905	32.97974
1587	5.58806	3.2291818	174.4009	173.3696	7.083006	32.97885
1588	5.58770	3.2291255	174.0380	173.0090	7.083071	32.97874
1589	5.58740	3.2290630	173.6880	172.6612	7.083134	32.97850
1590	5.58700	3.2288756	173.3223	172.2978	7.083274	32.97695
1591	5.58655	3.2286571	172.9719	171.9496	7.083437	32.97509
1592	5.58615	3.2284136	172.6185	171.5985	7.083606	32.97290
1593	5.58559	3.2282887	172.2590	171.2412	7.083732	32.97221
1594	5.58504	3.2281388	171.8933	170.8778	7.083872	32.97123
1595	5.58449	3.2279515	171.5401	170.5268	7.084031	32.96983
1596	5.58404	3.2277641	171.1806	170.1696	7.084177	32.96833
1597	5.58343	3.2276143	170.8271	169.8184	7.084323	32.96740
1598	5.58308	3.2274270	170.4738	169.4673	7.084457	32.96579
1599	5.58248	3.2273333	170.1112	169.1070	7.084572	32.96550
1600	5.58203	3.2271522	169.7486	168.7467	7.084715	32.96407
1601	5.58163	3.2269337	169.3922	168.3926	7.084872	32.96217
1602	5.58097	3.2266840	169.0355	168.0381	7.085076	32.96016
1603	5.58037	3.2264406	168.6854	167.6902	7.085271	32.95816
1604	5.57972	3.2261347	168.3138	167.3209	7.085505	32.95552
1605	5.57901	3.2259786	167.9604	166.9697	7.085666	32.95462
1606	5.57841	3.2257602	167.6130	166.6246	7.085848	32.95291
1607	5.57801	3.2255480	167.2534	166.2672	7.086001	32.95108
1608	5.57756	3.2254855	166.9033	165.9193	7.086082	32.95098
1609	5.57716	3.2252982	166.5468	165.5650	7.086223	32.94943
1610	5.57695	3.2251796	166.1901	165.2106	7.086302	32.94846
1611	5.57650	3.2251171	165.8336	164.8564	7.086383	32.94837
1612	5.57635	3.2249922	165.4925	164.5174	7.086459	32.94728
1613	5.57615	3.2248985	165.1421	164.1692	7.086525	32.94658
1614	5.57595	3.2248672	164.8100	163.8392	7.086559	32.94659
1615	5.57580	3.2247736	164.4474	163.4789	7.086619	32.94586
1616	5.57570	3.2247173	164.0970	163.1307	7.086653	32.94549
1617	5.57545	3.2246860	163.7469	162.7828	7.086693	32.94556
1618	5.57550	3.2246235	163.3872	162.4254	7.086711	32.94498
1619	5.57535	3.2245610	163.0365	162.0769	7.086755	32.94459
1620	5.57520	3.2244985	162.6954	161.7379	7.086798	32.94420
1621	5.57505	3.2243737	162.3423	161.3870	7.086875	32.94311
1622	5.57495	3.2242363	161.9854	161.0323	7.086951	32.94183
1623	5.57480	3.2241926	161.6475	160.6966	7.086985	32.94165
1624	5.57470	3.2241613	161.3060	160.3572	7.087006	32.94156
1625	5.57449	3.2241300	160.9408	159.9942	7.087039	32.94158
1626	5.57444	3.2240987	160.6022	159.6578	7.087054	32.94144
1627	5.57439	3.2240362	160.2552	159.3130	7.087085	32.94096
1628	5.57424	3.2239114	159.9170	158.9769	7.087162	32.93986
1629	5.57394	3.2238177	159.5636	158.6257	7.087241	32.93927
1630	5.57384	3.2237614	159.2222	158.2865	7.087275	32.93890
1631	5.57374	3.2238175	158.8840	157.9504	7.087250	32.93980
1632	5.57374	3.2242228	158.5004	157.5692	7.087028	32.94458
1633	5.57369	3.2242788	158.1194	157.1905	7.086996	32.94545
1634	5.57374	3.2237298	157.7539	156.8274	7.087270	32.93936
1635	5.57359	3.2233867	157.4096	156.4852	7.087462	32.93579
1636	5.57334	3.2231745	157.0745	156.1522	7.087597	32.93380
1637	5.57299	3.2229873	156.7392	155.8190	7.087732	32.93219
1638	5.57264	3.2228375	156.4072	155.4891	7.087847	32.93100
1639	5.57223	3.2227750	156.0846	155.1684	7.087922	32.93085
1640	5.57183	3.2228685	155.7582	154.8441	7.087915	32.93246
1641	5.57188	3.2231116	155.4200	154.5080	7.087773	32.93533
1642	5.57193	3.2231739	155.0789	154.1690	7.087726	32.93616
1643	5.57193	3.2236042	154.7469	153.8391	7.087492	32.94120
1644	5.57178	3.2236352	154.4179	153.5122	7.087487	32.94186
1645	5.57188	3.2236663	154.0828	153.1791	7.087450	32.94228
1646	5.57178	3.2238783	153.7442	152.8427	7.087343	32.94495
1647	5.57158	3.2240341	153.4031	152.5037	7.087278	32.94708
1648	5.57143	3.2240403	153.0620	152.1647	7.087286	32.94746
1649	5.57128	3.2240651	152.7326	151.8374	7.087284	32.94805
1650	5.57138	3.2241898	152.3976	151.5044	7.087198	32.94953
1651	5.57178	3.2242208	152.0717	151.1805	7.087124	32.94965
1652	5.57198	3.2242207	151.7455	150.8564	7.087092	32.94962
1653	5.57228	3.2241583	151.4289	150.5417	7.087080	32.94877
1654	5.57244	3.2240958	151.1028	150.2177	7.087087	32.94808
1655	5.57264	3.2241269	150.7890	149.9059	7.087038	32.94839
1656	5.57274	3.2244012	150.4813	149.6000	7.086874	32.95155
1657	5.57279	3.2246507	150.1614	149.2822	7.086729	32.95449
1658	5.57309	3.2248315	149.8413	148.9640	7.086589	32.95640
1659	5.57359	3.2249873	149.5274	148.6521	7.086438	32.95783
1660	5.57434	3.2250808	149.2167	148.3433	7.086288	32.95830
1661	5.57530	3.2251431	148.9091	148.0377	7.086129	32.95822
1662	5.57655	3.2249870	148.5981	147.7286	7.086048	32.95538
1663	5.57731	3.2247997	148.3027	147.4350	7.086047	32.95267
1664	5.57801	3.2247435	148.0042	147.1383	7.085982	32.95149
1665	5.57816	3.2245875	147.6930	146.8291	7.086038	32.94973
1666	5.57811	3.2245250	147.3882	146.5262	7.086070	32.94922
1667	5.57806	3.2245249	147.0993	146.2391	7.086070	32.94942
1668	5.57801	3.2244624	146.8066	145.9482	7.086102	32.94890
1669	5.57791	3.2244311	146.5141	145.6575	7.086125	32.94879
1670	5.57786	3.2244622	146.2214	145.3667	7.086108	32.94934
1671	5.57771	3.2245245	145.9292	145.0762	7.086087	32.95034
1672	5.57776	3.2245868	145.6396	144.7884	7.086041	32.95114
1673	5.57776	3.2246491	145.3381	144.4888	7.086001	32.95199
1674	5.57781	3.2246178	145.0394	144.1920	7.086005	32.95174
1675	5.57781	3.2245865	144.7436	143.8980	7.086014	32.95153
1676	5.57786	3.2245865	144.4544	143.6106	7.086002	32.95162
1677	5.57801	3.2246487	144.1681	143.3260	7.085944	32.95232
1678	5.57806	3.2246487	143.8847	143.0444	7.085931	32.95241
1679	5.57816	3.2247421	143.6073	142.7687	7.085863	32.95351
1680	5.57826	3.2248606	143.3272	142.4903	7.085781	32.95489
1681	5.57861	3.2250476	143.0497	142.2146	7.085633	32.95680
1682	5.57901	3.2252285	142.7725	141.9391	7.085481	32.95859
1683	5.57927	3.2253531	142.5043	141.6725	7.085378	32.95989
1684	5.57977	3.2254778	142.2454	141.4152	7.085244	32.96094
1685	5.58027	3.2256649	141.9834	141.1549	7.085078	32.96270
1686	5.58067	3.2257834	141.7062	140.8793	7.084959	32.96379
1687	5.58097	3.2259392	141.4412	140.6160	7.084833	32.96539
1688	5.58153	3.2260327	141.1728	140.3493	7.084709	32.96604
1689	5.58193	3.2260950	140.9017	140.0799	7.084620	32.96648
1690	5.58218	3.2261574	140.6304	139.8102	7.084550	32.96708
1691	5.58248	3.2263070	140.3534	139.5349	7.084428	32.96862
1692	5.58263	3.2263693	140.0851	139.2683	7.084370	32.96931
1693	5.58283	3.2264940	139.8140	138.9989	7.084273	32.97066
1694	5.58288	3.2265563	139.5551	138.7416	7.084228	32.97144
1695	5.58313	3.2266186	139.2960	138.4840	7.084158	32.97203
1696	5.58333	3.2266747	139.0397	138.2293	7.084098	32.97260
1697	5.58343	3.2267058	138.7782	137.9694	7.084063	32.97298
1698	5.58353	3.2267369	138.5219	137.7147	7.084028	32.97336
1699	5.58363	3.2268305	138.2662	137.4606	7.083961	32.97445
1700	5.58374	3.2268616	138.0132	137.2091	7.083926	32.97483
1701	5.58379	3.2267367	137.7421	136.9397	7.083979	32.97350
1702	5.58369	3.2266181	137.4890	136.6881	7.084048	32.97238
1703	5.58374	3.2265244	137.2208	136.4216	7.084085	32.97140
1704	5.58384	3.2263683	136.9496	136.1521	7.084149	32.96967
1705	5.58374	3.2261561	136.6875	135.8916	7.084267	32.96750
1706	5.58343	3.2259190	136.4317	135.6374	7.084423	32.96523
1707	5.58318	3.2257192	136.1635	135.3708	7.084553	32.96335
1708	5.58263	3.2254758	135.9047	135.1136	7.084744	32.96126
1709	5.58213	3.2251701	135.6426	134.8531	7.084961	32.95842
1710	5.58148	3.2249517	135.3838	134.5959	7.085151	32.95671
1711	5.58077	3.2247083	135.1338	134.3474	7.085361	32.95477
1712	5.58012	3.2244899	134.8840	134.0992	7.085551	32.95306
1713	5.57942	3.2243027	134.6188	133.8356	7.085731	32.95176
1714	5.57886	3.2240282	134.3719	133.5902	7.085938	32.94931
1715	5.57826	3.2238410	134.1284	133.3482	7.086106	32.94790
1716	5.57766	3.2236600	133.8753	133.0967	7.086271	32.94657
1717	5.57690	3.2233481	133.6072	132.8303	7.086522	32.94390
1718	5.57610	3.2231048	133.3573	132.5818	7.086744	32.94206
1719	5.57530	3.2229488	133.0955	132.3217	7.086920	32.94121
1720	5.57459	3.2226431	132.8455	132.0732	7.087163	32.93856
1721	5.57389	3.2223375	132.5895	131.8187	7.087405	32.93591
1722	5.57314	3.2220256	132.3520	131.5827	7.087658	32.93323
1723	5.57218	3.2216888	132.1143	131.3465	7.087948	32.93047
1724	5.57158	3.2214455	131.8737	131.1074	7.088146	32.92842
1725	5.57048	3.2211960	131.6297	130.8649	7.088409	32.92680
1726	5.56962	3.2208904	131.3828	130.6195	7.088670	32.92429
1727	5.56872	3.2206472	131.1361	130.3742	7.088905	32.92254
1728	5.56792	3.2202730	130.8923	130.1320	7.089196	32.91921
1729	5.56731	3.2200610	130.6426	129.8838	7.089377	32.91752
1730	5.56661	3.2199674	130.3925	129.6352	7.089508	32.91727
1731	5.56576	3.2197803	130.1490	129.3932	7.089707	32.91611
1732	5.56500	3.2195059	129.8990	129.1448	7.089940	32.91386
1733	5.56450	3.2194747	129.6432	128.8905	7.090013	32.91412
1734	5.56380	3.2193250	129.3993	128.6481	7.090174	32.91324
1735	5.56300	3.2189197	129.1585	128.4088	7.090482	32.90955
1736	5.56234	3.2188012	128.9148	128.1665	7.090620	32.90897
1737	5.56184	3.2186765	128.6801	127.9333	7.090742	32.90816
1738	5.56134	3.2183398	128.4395	127.6942	7.090977	32.90495
1739	5.56069	3.2182151	128.2048	127.4609	7.091118	32.90430
1740	5.56008	3.2180654	127.9702	127.2278	7.091267	32.90331
1741	5.55933	3.2178472	127.7174	126.9765	7.091470	32.90169
1742	5.55858	3.2177224	127.4734	126.7340	7.091623	32.90114
1743	5.55803	3.2175105	127.2238	126.4859	7.091798	32.89940
1744	5.55727	3.2172611	126.9736	126.2372	7.092017	32.89743
1745	5.55677	3.2170180	126.7298	125.9949	7.092203	32.89529
1746	5.55632	3.2168060	126.4772	125.7438	7.092365	32.89346
1747	5.55572	3.2165566	126.2332	125.5013	7.092565	32.89134
1748	5.55511	3.2163135	125.9865	125.2561	7.092763	32.88930
1749	5.55451	3.2161888	125.7517	125.0228	7.092898	32.88859
1750	5.55391	3.2159208	125.5204	124.7928	7.093109	32.88625
1751	5.55371	3.2157275	125.2855	124.5594	7.093231	32.88438
1752	5.55341	3.2155779	125.0509	124.3262	7.093342	32.88309
1753	5.55311	3.2154532	124.8012	124.0781	7.093439	32.88210
1754	5.55260	3.2151167	124.5573	123.8357	7.093674	32.87889
1755	5.55195	3.2148985	124.3257	123.6055	7.093865	32.87718
1756	5.55140	3.2147178	124.0759	123.3572	7.094023	32.87579
1757	5.55105	3.2145308	123.8323	123.1150	7.094160	32.87413
1758	5.55060	3.2142877	123.5944	122.8786	7.094339	32.87194
1759	5.55025	3.2140696	123.3598	122.6455	7.094492	32.86993
1760	5.54989	3.2139512	123.1253	122.4124	7.094593	32.86904
1761	5.54969	3.2137019	122.8847	122.1732	7.094744	32.86653
1762	5.54929	3.2134588	122.6405	121.9305	7.094916	32.86429
1763	5.54904	3.2132407	122.4122	121.7037	7.095057	32.86218
1764	5.54859	3.2130600	122.1808	121.4737	7.095204	32.86069
1765	5.54829	3.2127547	121.9429	121.2372	7.095397	32.85764
1766	5.54794	3.2126301	121.7052	121.0009	7.095501	32.85669
1767	5.54759	3.2123559	121.4767	120.7738	7.095684	32.85404
1768	5.54728	3.2120756	121.2452	120.5437	7.095864	32.85127
1769	5.54698	3.2118014	121.0046	120.3046	7.096041	32.84858
1770	5.54663	3.2115896	120.7791	120.0804	7.096191	32.84663
1771	5.54608	3.2113404	120.5476	119.8503	7.096386	32.84446
1772	5.54563	3.2110663	120.3036	119.6078	7.096581	32.84191
1773	5.54523	3.2108545	120.0719	119.3775	7.096738	32.84002
1774	5.54472	3.2105742	119.8191	119.1263	7.096942	32.83746
1775	5.54437	3.2103312	119.5662	118.8750	7.097109	32.83517
1776	5.54387	3.2101194	119.3407	118.6508	7.097278	32.83337
1777	5.54352	3.2099014	119.1151	118.4266	7.097431	32.83136
1778	5.54322	3.2096274	118.8833	118.1962	7.097608	32.82866
1779	5.54287	3.2095028	118.6552	117.9694	7.097713	32.82770
1780	5.54247	3.2092598	118.4265	117.7422	7.097886	32.82546
1781	5.54206	3.2091228	118.1947	117.5118	7.098003	32.82441
1782	5.54156	3.2089546	117.9632	117.2817	7.098149	32.82311
1783	5.54126	3.2087678	117.7348	117.0546	7.098280	32.82140
1784	5.54086	3.2085871	117.5004	116.8216	7.098420	32.81986
1785	5.54076	3.2084937	117.2745	116.5972	7.098476	32.81901
1786	5.54036	3.2082508	117.0493	116.3733	7.098649	32.81676
1787	5.54021	3.2081573	116.8235	116.1489	7.098712	32.81596
1788	5.53991	3.2079145	116.5859	115.9127	7.098872	32.81362
1789	5.53956	3.2078210	116.3484	115.6766	7.098960	32.81302
1790	5.53931	3.2076653	116.1045	115.4342	7.099068	32.81162
1791	5.53915	3.2075470	115.8698	115.2009	7.099144	32.81054
1792	5.53885	3.2072668	115.6412	114.9737	7.099324	32.80777
1793	5.53855	3.2070550	115.4095	114.7434	7.099468	32.80578
1794	5.53850	3.2069927	115.1810	114.5163	7.099502	32.80524
1795	5.53820	3.2066876	114.9404	114.2771	7.099695	32.80219
1796	5.53795	3.2067187	114.7028	114.0409	7.099704	32.80291
1797	5.53775	3.2065070	114.4711	113.8106	7.099836	32.80082
1798	5.53770	3.2061708	114.2458	113.5867	7.100015	32.79717
1799	5.53755	3.2060462	114.0202	113.3625	7.100094	32.79601
1800	5.53730	3.2058906	113.7978	113.1414	7.100202	32.79460
1801	5.53700	3.2055855	113.5693	112.9144	7.100396	32.79155
1802	5.53675	3.2054050	113.3377	112.6842	7.100517	32.78987
1803	5.53650	3.2051871	113.1121	112.4599	7.100658	32.78775
1804	5.53619	3.2050376	112.8743	112.2236	7.100769	32.78647
1805	5.53584	3.2048509	112.6429	111.9936	7.100906	32.78481
1806	5.53569	3.2046641	112.4174	111.7694	7.101018	32.78295
1807	5.53539	3.2044525	112.1979	111.5512	7.101163	32.78095
1808	5.53539	3.2043653	111.9722	111.3269	7.101204	32.78008
1809	5.53509	3.2042096	111.7467	111.1027	7.101318	32.77872
1810	5.53499	3.2039669	111.5276	110.8849	7.101454	32.77617
1811	5.53489	3.2037490	111.3112	110.6699	7.101576	32.77391
1812	5.53469	3.2034441	111.1010	110.4610	7.101758	32.77075
1813	5.53444	3.2032324	110.8876	110.2488	7.101896	32.76870
1814	5.53429	3.2030768	110.6591	110.0216	7.101992	32.76720
1815	5.53404	3.2028341	110.4336	109.7975	7.102146	32.76481
1816	5.53394	3.2026225	110.2113	109.5766	7.102265	32.76261
1817	5.53384	3.2023487	109.9795	109.3462	7.102417	32.75972
1818	5.53364	3.2021495	109.7540	109.1220	7.102542	32.75777
1819	5.53359	3.2020126	109.5376	108.9069	7.102616	32.75638
1820	5.53343	3.2017637	109.3213	108.6920	7.102761	32.75381
1821	5.53333	3.2015521	109.1142	108.4861	7.102880	32.75161
1822	5.53333	3.2012783	108.9069	108.2800	7.103020	32.74861
1823	5.53318	3.2010357	108.6905	108.0650	7.103162	32.74611
1824	5.53303	3.2007308	108.4773	107.8530	7.103337	32.74291
1825	5.53293	3.2004508	108.2609	107.6379	7.103493	32.73994
1826	5.53293	3.2002704	108.0414	107.4198	7.103583	32.73801
1827	5.53288	3.1999655	107.8130	107.1927	7.103745	32.73471
1828	5.53288	3.1996047	107.5782	106.9593	7.103930	32.73074
1829	5.53298	3.1995052	107.3621	106.7446	7.103965	32.72962
1830	5.53278	3.1992936	107.1516	106.5353	7.104097	32.72752
1831	5.53278	3.1991381	106.9444	106.3294	7.104175	32.72586
1832	5.53283	3.1988644	106.7311	106.1173	7.104308	32.72282
1833	5.53278	3.1987151	106.5178	105.9053	7.104388	32.72128
1834	5.53278	3.1984974	106.2986	105.6874	7.104498	32.71892
1835	5.53278	3.1982548	106.0759	105.4660	7.104621	32.71628
1836	5.53278	3.1980744	105.8594	105.2509	7.104711	32.71434
1837	5.53268	3.1977385	105.6251	105.0179	7.104896	32.71075
1838	5.53278	3.1974462	105.4026	104.7968	7.105033	32.70745
1839	5.53263	3.1973093	105.1921	104.5876	7.105119	32.70615
1840	5.53248	3.1969424	104.9699	104.3666	7.105327	32.70225
1841	5.53238	3.1968243	104.7564	104.1545	7.105397	32.70111
1842	5.53208	3.1966377	104.5367	103.9361	7.105528	32.69940
1843	5.53213	3.1963640	104.3208	103.7215	7.105661	32.69636
1844	5.53198	3.1961526	104.0982	103.5002	7.105787	32.69422
1845	5.53198	3.1959412	103.8879	103.2912	7.105893	32.69193
1846	5.53183	3.1956924	103.6655	103.0701	7.106039	32.68936
1847	5.53168	3.1955432	103.4521	102.8580	7.106131	32.68792
1848	5.53138	3.1953193	103.2295	102.6367	7.106282	32.68579
1849	5.53123	3.1951452	103.0226	102.4311	7.106388	32.68406
1850	5.53108	3.1949960	102.8243	102.2340	7.106481	32.68262
1851	5.53098	3.1948094	102.6109	102.0218	7.106588	32.68071
1852	5.53068	3.1946291	102.4069	101.8190	7.106716	32.67906
1853	5.53042	3.1944426	102.1906	101.6041	7.106841	32.67729
1854	5.53027	3.1941380	101.9650	101.3798	7.107015	32.67410
1855	5.52997	3.1940198	101.7487	101.1648	7.107111	32.67316
1856	5.52972	3.1937773	101.5263	100.9437	7.107265	32.67077
1857	5.52932	3.1935846	101.3101	100.7288	7.107412	32.66908
1858	5.52907	3.1934105	101.0932	100.5132	7.107530	32.66746
1859	5.52872	3.1931060	100.8742	100.2955	7.107730	32.66445
1860	5.52827	3.1927703	100.6637	100.0863	7.107959	32.66119
1861	5.52797	3.1925279	100.4506	99.8744	7.108120	32.65884
1862	5.52751	3.1922544	100.2431	99.6682	7.108317	32.65629
1863	5.52686	3.1919810	100.0391	99.4654	7.108538	32.65392
1864	5.52616	3.1916143	99.8318	99.2594	7.108815	32.65055
1865	5.52581	3.1913098	99.6276	99.0564	7.109015	32.64754
1866	5.52511	3.1908872	99.4294	98.8594	7.109322	32.64353
1867	5.52446	3.1906076	99.2100	98.6413	7.109547	32.64111
1868	5.52365	3.1902472	99.0029	98.4354	7.109833	32.63790
1869	5.52280	3.1898806	98.7775	98.2113	7.110128	32.63469
1870	5.52205	3.1895451	98.5582	97.9934	7.110395	32.63172
1871	5.52124	3.1893028	98.3448	97.7812	7.110619	32.62986
1872	5.52074	3.1890915	98.1223	97.5601	7.110788	32.62806
1873	5.52019	3.1888741	97.9150	97.3540	7.110967	32.62624
1874	5.51994	3.1886069	97.7139	97.1541	7.111136	32.62355
1875	5.51949	3.1883584	97.5188	96.9602	7.111319	32.62127
1876	5.51919	3.1880230	97.3149	96.7575	7.111529	32.61786
1877	5.51889	3.1877807	97.1165	96.5603	7.111691	32.61551
1878	5.51854	3.1874763	96.9061	96.3512	7.111891	32.61250
1879	5.51849	3.1871161	96.6870	96.1333	7.112083	32.60857
1880	5.51839	3.1867186	96.4676	95.9152	7.112300	32.60428
1881	5.51844	3.1863832	96.2419	95.6908	7.112466	32.60054
1882	5.51859	3.1861037	96.0348	95.4850	7.112591	32.59733
1883	5.51879	3.1857745	95.8304	95.2819	7.112735	32.59350
1884	5.51899	3.1852281	95.6204	95.0730	7.112994	32.58722
1885	5.51929	3.1848058	95.4192	94.8731	7.113175	32.58224
1886	5.51964	3.1843836	95.2151	94.6702	7.113349	32.57722
1887	5.52004	3.1839862	95.0078	94.4641	7.113504	32.57243
1888	5.52049	3.1835889	94.8007	94.2582	7.113653	32.56759
1889	5.52079	3.1830922	94.5873	94.0461	7.113873	32.56178
1890	5.52130	3.1826515	94.3953	93.8553	7.114039	32.55639
1891	5.52160	3.1822542	94.1910	93.6522	7.114207	32.55170
1892	5.52190	3.1818321	93.9930	93.4554	7.114388	32.54672
1893	5.52235	3.1813790	93.7887	93.2523	7.114566	32.54125
1894	5.52270	3.1810748	93.5938	93.0585	7.114678	32.53756
1895	5.52340	3.1807397	93.3925	92.8585	7.114763	32.53319
1896	5.52410	3.1803424	93.1825	92.6496	7.114880	32.52811
1897	5.52466	3.1800756	92.9690	92.4375	7.114947	32.52466
1898	5.52486	3.1797715	92.7647	92.2344	7.115078	32.52112
1899	5.52546	3.1795294	92.5607	92.0316	7.115125	32.51790
1900	5.52586	3.1792253	92.3623	91.8344	7.115231	32.51416
1901	5.52641	3.1789833	92.1522	91.6255	7.115285	32.51099
1902	5.52711	3.1787723	91.9605	91.4349	7.115304	32.50802
1903	5.52772	3.1785799	91.7685	91.2440	7.115326	32.50535
1904	5.52827	3.1783751	91.5671	91.0439	7.115360	32.50260
1905	5.52877	3.1781952	91.3660	90.8439	7.115388	32.50017
1906	5.52912	3.1780152	91.1708	90.6499	7.115434	32.49789
1907	5.52957	3.1777732	90.9728	90.4531	7.115501	32.49481
1908	5.52992	3.1776181	90.7841	90.2655	7.115535	32.49281
1909	5.53032	3.1774691	90.5767	90.0594	7.115558	32.49084
1910	5.53068	3.1773388	90.3785	89.8623	7.115578	32.48912
1911	5.53123	3.1771961	90.1745	89.6596	7.115580	32.48707
1912	5.53153	3.1771030	89.9521	89.4385	7.115586	32.48583
1913	5.53188	3.1769851	89.7540	89.2416	7.115600	32.48426
1914	5.53208	3.1768920	89.5679	89.0566	7.115620	32.48310
1915	5.53233	3.1767741	89.3757	88.8655	7.115646	32.48162
1916	5.53253	3.1766313	89.1900	88.6809	7.115692	32.47990
1917	5.53283	3.1765010	88.9918	88.4839	7.115719	32.47823
1918	5.53298	3.1763769	88.8062	88.2993	7.115761	32.47677
1919	5.53318	3.1761970	88.6171	88.1113	7.115827	32.47463
1920	5.53348	3.1761349	88.4283	87.9237	7.115817	32.47373
1921	5.53394	3.1760170	88.2208	87.7174	7.115818	32.47206
1922	5.53419	3.1758061	88.0167	87.5145	7.115893	32.46953
1923	5.53444	3.1757998	87.8188	87.3177	7.115861	32.46932
1924	5.53474	3.1756199	87.6205	87.1206	7.115913	32.46709
1925	5.53509	3.1755020	87.4254	86.9267	7.115927	32.46551
1926	5.53534	3.1754089	87.2212	86.7237	7.115940	32.46431
1927	5.53569	3.1752911	87.0202	86.5239	7.115954	32.46274
1928	5.53594	3.1751980	86.8251	86.3300	7.115967	32.46154
1929	5.53619	3.1750677	86.6330	86.1390	7.116000	32.45991
1930	5.53629	3.1749560	86.4351	85.9423	7.116042	32.45865
1931	5.53660	3.1748319	86.2523	85.7606	7.116065	32.45704
1932	5.53715	3.1746520	86.0695	85.5788	7.116087	32.45456
1933	5.53770	3.1744722	85.8898	85.4001	7.116108	32.45208
1934	5.53855	3.1742923	85.7007	85.2122	7.116092	32.44932
1935	5.53920	3.1741062	85.5056	85.0182	7.116104	32.44668
1936	5.54016	3.1739263	85.3074	84.8213	7.116074	32.44382
1937	5.54076	3.1737464	85.0971	84.6121	7.116089	32.44130
1938	5.54166	3.1735666	84.8962	84.4124	7.116066	32.43850
1939	5.54282	3.1733557	84.7010	84.2184	7.116028	32.43509
1940	5.54367	3.1731138	84.5059	84.0244	7.116044	32.43163
1941	5.54452	3.1729588	84.3139	83.8336	7.116014	32.42914
1942	5.54583	3.1728657	84.1099	83.6308	7.115895	32.42693
1943	5.54703	3.1727169	83.9240	83.4460	7.115818	32.42418
1944	5.54794	3.1725990	83.7288	83.2520	7.115762	32.42207
1945	5.54874	3.1725059	83.5369	83.0612	7.115706	32.42033
1946	5.54969	3.1723261	83.3478	82.8731	7.115677	32.41747
1947	5.55070	3.1722020	83.1680	82.6945	7.115612	32.41519
1948	5.55175	3.1720656	82.9729	82.5005	7.115547	32.41273
1949	5.55260	3.1719044	82.7838	82.3125	7.115521	32.41017
1950	5.55371	3.1718113	82.5982	82.1280	7.115427	32.40815
1951	5.55562	3.1716315	82.4092	81.9402	7.115278	32.40437
1952	5.55727	3.1715074	82.2202	81.7522	7.115131	32.40146
1953	5.55908	3.1713586	82.0313	81.5645	7.114978	32.39813
1954	5.56134	3.1711416	81.8453	81.3795	7.114804	32.39359
1955	5.56410	3.1710237	81.6473	81.1827	7.114515	32.38969
1956	5.56726	3.1708439	81.4613	80.9978	7.114208	32.38470
1957	5.57013	3.1706950	81.2601	80.7978	7.113922	32.38036
1958	5.57254	3.1705090	81.0559	80.5948	7.113713	32.37604
1959	5.57645	3.1702982	80.8517	80.3918	7.113327	32.36999
1960	5.58012	3.1702175	80.6629	80.2041	7.112904	32.36564
1961	5.58348	3.1701183	80.4710	80.0133	7.112529	32.36138
1962	5.58700	3.1699695	80.2789	79.8224	7.112162	32.35641
1963	5.58956	3.1698454	80.0991	79.6436	7.111901	32.35263
1964	5.59212	3.1696037	79.9132	79.4588	7.111702	32.34753
1965	5.59499	3.1695168	79.7270	79.2737	7.111384	32.34388
1966	5.59876	3.1693556	79.5475	79.0952	7.110991	32.33853
1967	5.60152	3.1691510	79.3555	78.9043	7.110748	32.33366
1968	5.60413	3.1690332	79.1695	78.7195	7.110477	32.32991
1969	5.60624	3.1688472	78.9837	78.5348	7.110306	32.32587
1970	5.60976	3.1685807	78.7795	78.3318	7.109999	32.31958
1971	5.61343	3.1683699	78.5906	78.1439	7.109645	32.31377
1972	5.61730	3.1682459	78.3955	77.9500	7.109220	32.30875
1973	5.62228	3.1680041	78.2035	77.7591	7.108717	32.30134
1974	5.62640	3.1678553	78.0084	77.5652	7.108273	32.29580
1975	5.62912	3.1676136	77.8132	77.3711	7.108055	32.29056
1976	5.63294	3.1673719	77.6154	77.1745	7.107698	32.28426
1977	5.63671	3.1671550	77.4324	76.9926	7.107334	32.27829
1978	5.64018	3.1670062	77.2495	76.8108	7.106972	32.27338
1979	5.64516	3.1668264	77.0668	76.6291	7.106437	32.26666
1980	5.64898	3.1666777	76.8898	76.4531	7.106031	32.26141
1981	5.65336	3.1664050	76.7042	76.2686	7.105620	32.25423
1982	5.65769	3.1661943	76.5120	76.0776	7.105183	32.24781
1983	5.66217	3.1659464	76.3291	75.8957	7.104747	32.24082
1984	5.66569	3.1657109	76.1372	75.7049	7.104424	32.23488
1985	5.67052	3.1655312	75.9422	75.5111	7.103907	32.22833
1986	5.67480	3.1652276	75.7471	75.3172	7.103525	32.22091
1987	5.67812	3.1650479	75.5612	75.1324	7.103198	32.21580
1988	5.68029	3.1648991	75.3629	74.9352	7.103000	32.21215
1989	5.68250	3.1646885	75.1801	74.7535	7.102828	32.20775
1990	5.68572	3.1645645	74.9912	74.5657	7.102484	32.20337
1991	5.69061	3.1643848	74.7993	74.3749	7.101961	32.19677
1992	5.69519	3.1641741	74.6071	74.1838	7.101492	32.19011
1993	5.69846	3.1640812	74.4305	74.0082	7.101126	32.18603
1994	5.70123	3.1639758	74.2505	73.8293	7.100829	32.18228
1995	5.70325	3.1638457	74.0739	73.6537	7.100641	32.17898
1996	5.70506	3.1637837	73.8881	73.4691	7.100441	32.17664
1997	5.70738	3.1636040	73.6987	73.2807	7.100240	32.17250
1998	5.70985	3.1635110	73.5071	73.0902	7.099975	32.16919
1999	5.71222	3.1633995	73.3120	72.8963	7.099732	32.16577
2000	5.71463	3.1633313	73.1167	72.7022	7.099460	32.16279
2001	5.71650	3.1632383	72.9153	72.5019	7.099270	32.16006
2002	5.71841	3.1631763	72.7177	72.3054	7.099057	32.15763
2003	5.72003	3.1630895	72.5286	72.1175	7.098896	32.15521
2004	5.72123	3.1630214	72.3397	71.9297	7.098776	32.15338
2005	5.72290	3.1629408	72.1601	71.7511	7.098605	32.15098
2006	5.72386	3.1628478	71.9618	71.5540	7.098529	32.14912
2007	5.72466	3.1626682	71.7424	71.3359	7.098517	32.14643
2008	5.72673	3.1627300	71.5505	71.1451	7.098221	32.14525
2009	5.72829	3.1623337	71.3523	70.9481	7.098228	32.13940
2010	5.73000	3.1623212	71.1632	70.7601	7.098015	32.13772
2011	5.73263	3.1623645	70.9803	70.5782	7.097660	32.13580
2012	5.73580	3.1621229	70.7914	70.3904	7.097383	32.13014
2013	5.73893	3.1620362	70.6024	70.2026	7.097032	32.12628
2014	5.74135	3.1618256	70.4136	70.0148	7.096835	32.12170
2015	5.74321	3.1616521	70.2213	69.8236	7.096687	32.11807
2016	5.74634	3.1614601	70.0263	69.6298	7.096391	32.11303
2017	5.74876	3.1612186	69.8375	69.4421	7.096209	32.10810
2018	5.75138	3.1609833	69.6454	69.2511	7.095999	32.10305
2019	5.75466	3.1607727	69.4535	69.0603	7.095693	32.09766
2020	5.75839	3.1603826	69.2614	68.8694	7.095425	32.08982
2021	5.76132	3.1600792	69.0848	68.6937	7.095212	32.08371
2022	5.76323	3.1596582	68.8956	68.5057	7.095188	32.07725
2023	5.76555	3.1593239	68.7159	68.3270	7.095067	32.07137
2024	5.77019	3.1591134	68.5390	68.1512	7.094591	32.06468
2025	5.77484	3.1587914	68.3501	67.9634	7.094172	32.05675
2026	5.77812	3.1585438	68.1611	67.7755	7.093886	32.05094
2027	5.78094	3.1581848	67.9632	67.5787	7.093714	32.04432
2028	5.78387	3.1578814	67.7742	67.3908	7.093501	32.03823
2029	5.78922	3.1575534	67.5732	67.1910	7.092997	32.02956
2030	5.79401	3.1571758	67.3780	66.9969	7.092588	32.02087
2031	5.79830	3.1568601	67.1829	66.8029	7.092210	32.01335
2032	5.80386	3.1565259	66.9906	66.6118	7.091683	32.00443
2033	5.81022	3.1561978	66.7959	66.4182	7.091051	31.99481
2034	5.81628	3.1558945	66.6069	66.2303	7.090445	31.98576
2035	5.82148	3.1556532	66.4271	66.0515	7.089914	31.97821
2036	5.82487	3.1553252	66.2593	65.8847	7.089657	31.97141
2037	5.82679	3.1550838	66.0735	65.7000	7.089538	31.96697
2038	5.83007	3.1548734	65.8902	65.5178	7.089231	31.96160
2039	5.83522	3.1546073	65.7107	65.3393	7.088720	31.95382
2040	5.84109	3.1544154	65.5160	65.1457	7.088080	31.94622
2041	5.84700	3.1542174	65.3268	64.9577	7.087437	31.93850
2042	5.85155	3.1540626	65.1345	64.7665	7.086943	31.93256
2043	5.85544	3.1539760	64.9458	64.5788	7.086496	31.92801
2044	5.86009	3.1537655	64.7506	64.3848	7.086018	31.92135
2045	5.86338	3.1536541	64.5496	64.1850	7.085659	31.91709
2046	5.86656	3.1535860	64.3605	63.9970	7.085291	31.91341
2047	5.86843	3.1534931	64.1624	63.8000	7.085101	31.91070
2048	5.87061	3.1533137	63.9550	63.5938	7.084917	31.90674
2049	5.87309	3.1532208	63.7601	63.4000	7.084650	31.90346
2050	5.87642	3.1532702	63.5864	63.2273	7.084202	31.90094
2051	5.87850	3.1529547	63.4035	63.0455	7.084102	31.89554
2052	5.88214	3.1530412	63.2266	62.8696	7.083597	31.89316
2053	5.88558	3.1529236	63.0530	62.6970	7.083223	31.88868
2054	5.88710	3.1527318	62.8642	62.5093	7.083128	31.88519
2055	5.88917	3.1526514	62.6783	62.3245	7.082906	31.88243
2056	5.89221	3.1525028	62.4769	62.1243	7.082598	31.87800
2057	5.89438	3.1524409	62.2942	61.9426	7.082353	31.87534
2058	5.89823	3.1523542	62.1051	61.7547	7.081912	31.87084
2059	5.90253	3.1524160	61.9192	61.5698	7.081337	31.86757
2060	5.90845	3.1522922	61.7240	61.3758	7.080655	31.86070
2061	5.91346	3.1522611	61.5291	61.1819	7.080039	31.85572
2062	5.91726	3.1521745	61.3309	60.9849	7.079604	31.85127
2063	5.92197	3.1521125	61.1327	60.7879	7.079042	31.84624
2064	5.92526	3.1521001	60.9500	60.6062	7.078633	31.84310
2065	5.92931	3.1520505	60.7732	60.4304	7.078147	31.83881
2066	5.93356	3.1520195	60.6027	60.2609	7.077627	31.83455
2067	5.93691	3.1519637	60.4287	60.0880	7.077233	31.83086
2068	5.94035	3.1518771	60.2306	59.8910	7.076842	31.82675
2069	5.94466	3.1519017	60.0448	59.7062	7.076287	31.82307
2070	5.94729	3.1517841	59.8587	59.5213	7.076014	31.81936
2071	5.95063	3.1517222	59.6639	59.3275	7.075623	31.81562
2072	5.95479	3.1516046	59.4718	59.1366	7.075159	31.81050
2073	5.95884	3.1514623	59.2858	58.9517	7.074721	31.80519
2074	5.96133	3.1513942	59.1058	58.7727	7.074442	31.80218
2075	5.96619	3.1512086	58.9080	58.5760	7.073925	31.79563
2076	5.97324	3.1511219	58.7157	58.3849	7.073083	31.78814
2077	5.98023	3.1509425	58.5299	58.2001	7.072297	31.77966
2078	5.98611	3.1508929	58.3410	58.0123	7.071582	31.77368
2079	5.99098	3.1507629	58.1553	57.8276	7.071036	31.76775
2080	5.99453	3.1506083	57.9781	57.6515	7.070668	31.76278
2081	5.99808	3.1504598	57.7925	57.4669	7.070297	31.75788
2082	6.00042	3.1504164	57.6063	57.2818	7.070023	31.75530
2083	6.00458	3.1502494	57.4234	57.1000	7.069585	31.74962
2084	6.00945	3.1501318	57.2438	56.9214	7.069033	31.74383
2085	6.01356	3.1500081	57.0577	56.7364	7.068579	31.73869
2086	6.01736	3.1498596	56.8717	56.5514	7.068175	31.73356
2087	6.02157	3.1497235	56.6735	56.3545	7.067714	31.72820
2088	6.02538	3.1495627	56.4909	56.1729	7.067317	31.72293
2089	6.03020	3.1493833	56.3018	55.9848	7.066803	31.71650
2090	6.03574	3.1491111	56.0948	55.7790	7.066247	31.70839
2091	6.04203	3.1490554	55.9027	55.5880	7.065484	31.70197
2092	6.05097	3.1487833	55.7198	55.4062	7.064503	31.69067
2093	6.05889	3.1486286	55.5277	55.2152	7.063588	31.68164
2094	6.06458	3.1485728	55.3385	55.0271	7.062902	31.67579
2095	6.07093	3.1483007	55.1437	54.8334	7.062244	31.66693
2096	6.07886	3.1481090	54.9608	54.6516	7.061349	31.65748
2097	6.08638	3.1479420	54.8023	54.4940	7.060491	31.64868
2098	6.09253	3.1478800	54.6317	54.3244	7.059751	31.64233
2099	6.09934	3.1478243	54.4426	54.1364	7.058925	31.63545
2100	6.10768	3.1477623	54.2598	53.9546	7.057912	31.62707
2101	6.11363	3.1476139	54.0586	53.7546	7.057241	31.61997
2102	6.11999	3.1474592	53.8572	53.5544	7.056522	31.61243
2103	6.12610	3.1474344	53.6624	53.3607	7.055768	31.60656
2104	6.13190	3.1473107	53.4763	53.1756	7.055104	31.59987
2105	6.13709	3.1473477	53.2936	52.9940	7.054433	31.59554
2106	6.14080	3.1473105	53.1075	52.8089	7.053985	31.59176
2107	6.14584	3.1472795	52.9307	52.6332	7.053368	31.58681
2108	6.15017	3.1472238	52.7479	52.4514	7.052853	31.58225
2109	6.15383	3.1471928	52.5621	52.2666	7.052408	31.57859
2110	6.15842	3.1472236	52.3729	52.0786	7.051816	31.57476
2111	6.16168	3.1472235	52.1901	51.8968	7.051406	31.57182
2112	6.16493	3.1471616	51.9949	51.7028	7.051027	31.56819
2113	6.16967	3.1470997	51.8121	51.5210	7.050464	31.56319
2114	6.17497	3.1470934	51.6446	51.3544	7.049803	31.55828
2115	6.18128	3.1470438	51.4617	51.1726	7.049037	31.55195
2116	6.18944	3.1470128	51.2788	50.9908	7.048033	31.54413
2117	6.19738	3.1469199	51.0835	50.7966	7.047085	31.53581
2118	6.20605	3.1469383	50.8975	50.6117	7.045992	31.52806
2119	6.21747	3.1469196	50.7118	50.4270	7.044575	31.51736
2120	6.22864	3.1469813	50.5320	50.2483	7.043149	31.50777
2121	6.23802	3.1468884	50.3551	50.0724	7.042024	31.49813
2122	6.24547	3.1468697	50.1753	49.8936	7.041102	31.49112
2123	6.25588	3.1468634	49.9863	49.7057	7.039806	31.48150
2124	6.26849	3.1468014	49.8033	49.5237	7.038265	31.46924
2125	6.27931	3.1468878	49.6176	49.3391	7.036870	31.46027
2126	6.29039	3.1468876	49.4377	49.1602	7.035488	31.45011
2127	6.30076	3.1468071	49.2517	48.9753	7.034236	31.43973
2128	6.30771	3.1468317	49.0717	48.7963	7.033355	31.43367
2129	6.31717	3.1468315	48.8952	48.6208	7.032177	31.42503
2130	6.32729	3.1468870	48.7064	48.4331	7.030887	31.41639
2131	6.33496	3.1468374	48.5109	48.2387	7.029955	31.40887
2132	6.34063	3.1467075	48.3219	48.0508	7.029311	31.40229
2133	6.34800	3.1468619	48.1452	47.8751	7.028315	31.39729
2134	6.35465	3.1467691	47.9716	47.7025	7.027532	31.39022
2135	6.36007	3.1468864	47.7950	47.5269	7.026796	31.38660
2136	6.36611	3.1468368	47.6179	47.3508	7.026067	31.38058
2137	6.37266	3.1467996	47.4441	47.1781	7.025269	31.37422
2138	6.38340	3.1468304	47.2642	46.9992	7.023916	31.36475
2139	6.39415	3.1467993	47.0813	46.8173	7.022594	31.35461
2140	6.40629	3.1466508	46.8955	46.6326	7.021159	31.34190
2141	6.41444	3.1465271	46.7095	46.4477	7.020207	31.33314
2142	6.42094	3.1464960	46.5267	46.2659	7.019412	31.32691
2143	6.43001	3.1463785	46.3377	46.0779	7.018343	31.31737
2144	6.44103	3.1462671	46.1610	45.9022	7.017029	31.30612
2145	6.45026	3.1461372	45.9874	45.7297	7.015947	31.29630
2146	6.46421	3.1459578	45.8104	45.5537	7.014305	31.28163
2147	6.48093	3.1458401	45.6336	45.3779	7.012289	31.26510
2148	6.49433	3.1456916	45.4629	45.2082	7.010701	31.25129
2149	6.50736	3.1455123	45.2830	45.0293	7.009173	31.23747
2150	6.52005	3.1451228	45.1062	44.8535	7.007794	31.22168
2151	6.53073	3.1448199	44.9294	44.6777	7.006620	31.20868
2152	6.54070	3.1443749	44.7555	44.5048	7.005606	31.19477
2153	6.55128	3.1439299	44.5727	44.3230	7.004515	31.18032
2154	6.56213	3.1433243	44.3988	44.1502	7.003473	31.16386
2155	6.57180	3.1428485	44.2161	43.9685	7.002512	31.14992
2156	6.57812	3.1420701	44.0393	43.7927	7.002115	31.13571
2157	6.58306	3.1415636	43.8536	43.6080	7.001753	31.12575
2158	6.58717	3.1411126	43.6734	43.4289	7.001466	31.11714
2159	6.59345	3.1404579	43.4997	43.2562	7.001013	31.10434
2160	6.60179	3.1398588	43.3199	43.0774	7.000277	31.09028
2161	6.60956	3.1395129	43.1523	42.9107	6.999485	31.07951
2162	6.61656	3.1389633	42.9785	42.7380	6.998890	31.06721
2163	6.62181	3.1384569	42.7926	42.5531	6.998490	31.05699
2164	6.62459	3.1379444	42.6068	42.3683	6.998397	31.04894
2165	6.62670	3.1375924	42.4329	42.1955	6.998308	31.04325
2166	6.62850	3.1372282	42.2591	42.0226	6.998263	31.03771
2167	6.63242	3.1366602	42.0826	41.8472	6.998059	31.02803
2168	6.63530	3.1360676	41.9118	41.6773	6.997994	31.01901
2169	6.63911	3.1354812	41.7319	41.4985	6.997811	31.00922
2170	6.64241	3.1348763	41.5488	41.3164	6.997701	30.99970
2171	6.64601	3.1339814	41.3691	41.1377	6.997697	30.98673
2172	6.64849	3.1331175	41.1892	40.9588	6.997818	30.97513
2173	6.65111	3.1323339	41.0125	40.7832	6.997879	30.96426
2174	6.65415	3.1313900	40.8267	40.5984	6.997969	30.95128
2175	6.65652	3.1304956	40.6558	40.4285	6.998118	30.93943
2176	6.65941	3.1295087	40.4820	40.2556	6.998248	30.92612
2177	6.66157	3.1286884	40.3022	40.0769	6.998385	30.91528
2178	6.66137	3.1279053	40.1224	39.8982	6.998797	30.90698
2179	6.66204	3.1271037	39.9394	39.7161	6.999109	30.89770
2180	6.66317	3.1261789	39.7628	39.5405	6.999425	30.88665
2181	6.66477	3.1252049	39.5859	39.3646	6.999708	30.87465
2182	6.66688	3.1246069	39.4151	39.1948	6.999741	30.86629
2183	6.66879	3.1241015	39.2385	39.0192	6.999752	30.85913
2184	6.66941	3.1234174	39.0586	38.8404	7.000012	30.85118
2185	6.67049	3.1228812	38.8754	38.6582	7.000141	30.84443
2186	6.67204	3.1223758	38.6896	38.4734	7.000197	30.83760
2187	6.67456	3.1217842	38.4948	38.2797	7.000174	30.82895
2188	6.67719	3.1213467	38.3238	38.1097	7.000063	30.82188
2189	6.67884	3.1210756	38.1439	37.9308	6.999989	30.81752
2190	6.68034	3.1207490	37.9732	37.7611	6.999963	30.81269
2191	6.68116	3.1205025	37.7935	37.5824	6.999979	30.80933
2192	6.68101	3.1202992	37.6167	37.4066	7.000096	30.80733
2193	6.68204	3.1199726	37.4367	37.2276	7.000127	30.80292
2194	6.68312	3.1197200	37.2508	37.0428	7.000114	30.79928
2195	6.68554	3.1194120	37.0618	36.8549	6.999963	30.79382
2196	6.68766	3.1192025	36.8820	36.6761	6.999802	30.78971
2197	6.68920	3.1189683	36.6960	36.4912	6.999722	30.78585
2198	6.69013	3.1188143	36.5255	36.3216	6.999680	30.78342
2199	6.69101	3.1185494	36.3455	36.1426	6.999699	30.77982
2200	6.69122	3.1181059	36.1656	35.9638	6.999891	30.77487
2201	6.69178	3.1178411	35.9888	35.7880	6.999948	30.77155
2202	6.69189	3.1176624	35.8151	35.6152	7.000021	30.76959
2203	6.69163	3.1173052	35.6475	35.4486	7.000227	30.76600
2204	6.69152	3.1171574	35.4704	35.2725	7.000309	30.76456
2205	6.69173	3.1169356	35.2786	35.0818	7.000390	30.76204
2206	6.69137	3.1166277	35.1077	34.9118	7.000584	30.75908
2207	6.69132	3.1164183	34.9219	34.7271	7.000691	30.75692
2208	6.69132	3.1163444	34.7421	34.5483	7.000724	30.75620
2209	6.69163	3.1161781	34.5653	34.3726	7.000765	30.75419
2210	6.69163	3.1157963	34.3792	34.1875	7.000951	30.75010
2211	6.69199	3.1153714	34.1812	33.9906	7.001113	30.74523
2212	6.69199	3.1149650	33.9982	33.8086	7.001311	30.74088
2213	6.69163	3.1144663	33.8060	33.6176	7.001600	30.73585
2214	6.69127	3.1138138	33.6081	33.4207	7.001965	30.72914
2215	6.69054	3.1134568	33.4220	33.2358	7.002229	30.72597
2216	6.68936	3.1127489	33.2425	33.0572	7.002724	30.71939
2217	6.68807	3.1120350	33.0715	32.8872	7.003236	30.71283
2218	6.68693	3.1112842	32.8977	32.7144	7.003747	30.70573
2219	6.68498	3.1105273	32.7117	32.5294	7.004363	30.69931
2220	6.68266	3.1094383	32.5319	32.3507	7.005189	30.68958
2221	6.68059	3.1085401	32.3521	32.1718	7.005888	30.68171
2222	6.67755	3.1070762	32.1570	31.9778	7.006991	30.66854
2223	6.67327	3.1061291	31.9649	31.7868	7.007991	30.66212
2224	6.66817	3.1044874	31.7759	31.5989	7.009439	30.64885
2225	6.66389	3.1031226	31.5867	31.4108	7.010648	30.63786
2226	6.65915	3.1019424	31.3948	31.2200	7.011822	30.62930
2227	6.65431	3.1001662	31.1967	31.0230	7.013306	30.61432
2228	6.64921	3.0987960	31.0199	30.8471	7.014621	30.60400
2229	6.64436	3.0975304	30.8461	30.6744	7.015853	30.59458
2230	6.63957	3.0963142	30.6693	30.4986	7.017053	30.58566
2231	6.63587	3.0950551	30.4956	30.3258	7.018140	30.57529
2232	6.63319	3.0934279	30.3188	30.1501	7.019283	30.55999
2233	6.63066	3.0920894	30.1267	29.9590	7.020262	30.54771
2234	6.62835	3.0910029	29.9347	29.7681	7.021090	30.53799
2235	6.62685	3.0891555	29.7517	29.5861	7.022195	30.51922
2236	6.62603	3.0879527	29.5538	29.3893	7.022895	30.50691
2237	6.62454	3.0865170	29.3586	29.1952	7.023794	30.49265
2238	6.62243	3.0848853	29.1694	29.0071	7.024869	30.47679
2239	6.62042	3.0835053	28.9804	28.8192	7.025806	30.46359
2240	6.61846	3.0821991	28.8035	28.6433	7.026700	30.45114
2241	6.61604	3.0810465	28.6147	28.4555	7.027575	30.44079
2242	6.61321	3.0799062	28.4316	28.2734	7.028495	30.43093
2243	6.61054	3.0787110	28.2488	28.0917	7.029424	30.42034
2244	6.60884	3.0776875	28.0688	27.9127	7.030145	30.41075
2245	6.60673	3.0765171	27.8951	27.7400	7.030991	30.39992
2246	6.60508	3.0753836	27.7032	27.5492	7.031761	30.38908
2247	6.60318	3.0746790	27.5142	27.3612	7.032348	30.38316
2248	6.60081	3.0738459	27.3219	27.1700	7.033058	30.37625
2249	6.59870	3.0732518	27.1238	26.9730	7.033616	30.37172
2250	6.59695	3.0725535	26.9290	26.7793	7.034180	30.36573
2251	6.59551	3.0719105	26.7245	26.5759	7.034679	30.36008
2252	6.59474	3.0712368	26.5234	26.3760	7.035109	30.35349
2253	6.59417	3.0706122	26.3404	26.1940	7.035488	30.34726
2254	6.59381	3.0701591	26.1452	25.9999	7.035756	30.34271
2255	6.59366	3.0698468	25.9656	25.8213	7.035928	30.33952
2256	6.59376	3.0694611	25.7642	25.6211	7.036104	30.33530
2257	6.59381	3.0687080	25.5722	25.4301	7.036471	30.32712
2258	6.59412	3.0682489	25.3772	25.2363	7.036658	30.32192
2259	6.59443	3.0679795	25.1911	25.0512	7.036750	30.31879
2260	6.59474	3.0675694	24.9898	24.8510	7.036912	30.31412
2261	6.59484	3.0671042	24.7916	24.6539	7.037128	30.30904
2262	6.59474	3.0664982	24.5936	24.4571	7.037440	30.30260
2263	6.59469	3.0657394	24.3862	24.2508	7.037822	30.29445
2264	6.59448	3.0650112	24.1848	24.0505	7.038208	30.28677
2265	6.59386	3.0641913	23.9809	23.8478	7.038692	30.27845
2266	6.59335	3.0636162	23.7857	23.6537	7.039041	30.27272
2267	6.59268	3.0632429	23.5936	23.4626	7.039308	30.26932
2268	6.59206	3.0626312	23.3924	23.2625	7.039687	30.26327
2269	6.59134	3.0621112	23.2003	23.0716	7.040034	30.25832
2270	6.59093	3.0614078	23.0022	22.8745	7.040434	30.25109
2271	6.59047	3.0608879	22.7949	22.6684	7.040748	30.24591
2272	6.59072	3.0602702	22.5998	22.4744	7.041021	30.23903
2273	6.59237	3.0596648	22.3925	22.2683	7.041113	30.23105
2274	6.59407	3.0591695	22.1850	22.0620	7.041143	30.22424
2275	6.59608	3.0585335	21.9781	21.8562	7.041204	30.21561
2276	6.59808	3.0579405	21.7675	21.6467	7.041244	30.20746
2277	6.59988	3.0571151	21.5542	21.4346	7.041426	30.19696
2278	6.60153	3.0563510	21.3467	21.2283	7.041597	30.18726
2279	6.60276	3.0558681	21.1334	21.0162	7.041679	30.18099
2280	6.60390	3.0554647	20.9320	20.8160	7.041734	30.17568
2281	6.60518	3.0548291	20.7250	20.6101	7.041886	30.16770
2282	6.60595	3.0543646	20.5147	20.4010	7.042016	30.16205
2283	6.60626	3.0537840	20.3102	20.1976	7.042264	30.15553
2284	6.60642	3.0532035	20.0969	19.9855	7.042530	30.14915
2285	6.60657	3.0528064	19.8956	19.7854	7.042706	30.14477
2286	6.60678	3.0523359	19.6760	19.5670	7.042910	30.13956
2287	6.60673	3.0519510	19.4718	19.3639	7.043105	30.13549
2288	6.60673	3.0514378	19.2401	19.1335	7.043357	30.13000
2289	6.60657	3.0510957	19.0237	18.9183	7.043544	30.12650
2290	6.60668	3.0507474	18.8043	18.7001	7.043700	30.12271
2291	6.60662	3.0503931	18.5756	18.4728	7.043879	30.11899
2292	6.60683	3.0499961	18.3499	18.2483	7.044047	30.11458
2293	6.60698	3.0495075	18.1245	18.0241	7.044268	30.10921
2294	6.60683	3.0491837	17.9109	17.8117	7.044445	30.10591
2295	6.60693	3.0487501	17.6945	17.5966	7.044644	30.10119
2296	6.60688	3.0484081	17.4780	17.3812	7.044818	30.09760
2297	6.60678	3.0481699	17.2676	17.1720	7.044945	30.09518
2298	6.60693	3.0476509	17.0390	16.9447	7.045181	30.08949
2299	6.60709	3.0475104	16.8133	16.7203	7.045227	30.08792
2300	6.60724	3.0465213	16.5938	16.5019	7.045698	30.07709
2301	6.60750	3.0460634	16.3713	16.2807	7.045890	30.07197
2302	6.60822	3.0457887	16.1365	16.0472	7.045932	30.06844
2303	6.60889	3.0453430	15.9078	15.8198	7.046066	30.06310
2304	6.60961	3.0449340	15.6822	15.5954	7.046175	30.05810
2305	6.61033	3.0445067	15.4443	15.3589	7.046293	30.05292
2306	6.61115	3.0441160	15.1975	15.1135	7.046379	30.04804
2307	6.61187	3.0438108	14.9750	14.8922	7.046437	30.04418
2308	6.61316	3.0435056	14.7311	14.6497	7.046422	30.03983
2309	6.61450	3.0432675	14.4993	14.4191	7.046367	30.03616
2310	6.61573	3.0430173	14.2798	14.2008	7.046332	30.03245
2311	6.61738	3.0427731	14.0482	13.9706	7.046241	30.02844
2312	6.61862	3.0425900	13.8348	13.7583	7.046173	30.02546
2313	6.62011	3.0423703	13.6090	13.5338	7.046089	30.02185
2314	6.62191	3.0421932	13.3867	13.3127	7.045946	30.01844
2315	6.62382	3.0419125	13.1581	13.0854	7.045841	30.01381
2316	6.62531	3.0417965	12.9232	12.8518	7.045706	30.01135
2317	6.62675	3.0416195	12.6854	12.6153	7.045607	30.00826
2318	6.62891	3.0414974	12.4324	12.3637	7.045390	30.00514
2319	6.63144	3.0413021	12.1824	12.1151	7.045164	30.00092
2320	6.63432	3.0411616	11.9415	11.8755	7.044865	29.99697
2321	6.63679	3.0409846	11.7037	11.6390	7.044637	29.99298
2322	6.63988	3.0408991	11.4599	11.3967	7.044284	29.98945
2323	6.64313	3.0408258	11.2221	11.1601	7.043907	29.98591
2324	6.64586	3.0408440	10.9902	10.9295	7.043548	29.98382
2325	6.64807	3.0407341	10.7617	10.7023	7.043319	29.98079
2326	6.65111	3.0404961	10.5267	10.4687	7.043049	29.97564
2327	6.65549	3.0403374	10.2859	10.2292	7.042571	29.97019
2328	6.65905	3.0401238	10.0605	10.0050	7.042224	29.96485
2329	6.66235	3.0396724	9.8287	9.7745	7.042029	29.95715
2330	6.66843	3.0391721	9.5972	9.5442	7.041506	29.94649
2331	6.67600	3.0386353	9.3378	9.2863	7.040812	29.93414
2332	6.68271	3.0377631	9.0848	9.0347	7.040397	29.91890
2333	6.68879	3.0365068	8.8379	8.7892	7.040250	29.90003
2334	6.69415	3.0355434	8.5725	8.5253	7.040048	29.88499
2335	6.69844	3.0347509	8.3194	8.2735	7.039897	29.87275
2336	6.70086	3.0332148	8.0634	8.0190	7.040351	29.85405
2337	6.70318	3.0320507	7.8196	7.7765	7.040633	29.83948
2338	6.70643	3.0309478	7.5820	7.5402	7.040767	29.82476
2339	6.71262	3.0297170	7.3562	7.3157	7.040593	29.80610
2340	6.72176	3.0280783	7.1213	7.0821	7.040250	29.78046
2341	6.73053	3.0270184	6.8899	6.8519	7.039664	29.76143
2342	6.73863	3.0259648	6.6487	6.6121	7.039159	29.74306
2343	6.74499	3.0248992	6.4231	6.3877	7.038882	29.72608
2344	6.74994	3.0237850	6.1885	6.1544	7.038804	29.70980
2345	6.75516	3.0221780	5.9323	5.8997	7.038938	29.68795
2346	6.76136	3.0210946	5.6732	5.6420	7.038688	29.67095
2347	6.76942	3.0201452	5.4171	5.3873	7.038135	29.65380
2348	6.77934	3.0188612	5.1581	5.1297	7.037513	29.63142
2349	6.78947	3.0173768	4.8895	4.8626	7.036963	29.60670
2350	6.80043	3.0160264	4.6304	4.6049	7.036242	29.58273
2351	6.81062	3.0145486	4.3834	4.3593	7.035681	29.55806
2352	6.81879	3.0128643	4.1334	4.1107	7.035477	29.53290
2353	6.82246	3.0116911	3.8959	3.8744	7.035589	29.51714
2354	6.82381	3.0102688	3.6609	3.6408	7.036118	29.50070
2355	6.82500	3.0088954	3.4444	3.4255	7.036643	29.48491
2356	6.82293	3.0077653	3.2038	3.1862	7.037459	29.47456
2357	6.82308	3.0065503	2.9658	2.9495	7.038037	29.46138
2358	6.83002	3.0050925	2.7128	2.6979	7.037875	29.43977
2359	6.83835	3.0038231	2.4505	2.4371	7.037443	29.41901
2360	6.84264	3.0025904	2.1731	2.1612	7.037503	29.40213
2361	6.84073	3.0015098	1.9112	1.9007	7.038275	29.39219
2362	6.83141	3.0016312	1.6640	1.6548	7.039390	29.40159
2363	6.82479	2.9999498	1.4171	1.4093	7.041057	29.38917
2364	6.81894	2.9978865	1.1670	1.1606	7.042815	29.37196
2365	6.81558	2.9973465	0.9232	0.9181	7.043504	29.36910
2366	6.81827	2.9963757	0.6913	0.6875	7.043639	29.35640
2367	6.82453	3.0053834	0.5115	0.5087	7.038382	29.44858
2368	6.83084	3.0051768	0.3925	0.3904	7.037682	29.44099
2369	6.83384	2.9969275	0.3012	0.2995	7.041383	29.34923
2370	6.82939	2.9935186	0.2248	0.2235	7.043633	29.31620
2371	6.83074	2.9916207	0.1698	0.1689	7.044401	29.29455
2372	6.83793	2.9897898	0.0785	0.0781	7.044392	29.26867
2373	6.84958	2.9872927	-0.0527	-0.0525	7.044145	29.23182
2374	6.85905	2.9766287	-0.0832	-0.0828	7.048214	29.10862
2375	6.86392	2.9427282	-0.0862	-0.0857	7.064358	28.73886
2376	6.86672	2.8991098	-0.0803	-0.0798	7.085585	28.26699
2377	6.86232	2.8543044	-0.0803	-0.0799	7.108354	27.78926
2378	6.85284	1.9929219	-0.0832	-0.0828	7.540156	18.74910
2379	6.84332	0.6537069	-0.0833	-0.0829	8.213410	5.62468
2380	6.83798	0.6420640	-0.0831	-0.0827	8.220173	5.51829
2381	6.83514	0.5803715	-0.0799	-0.0795	8.251001	4.95317
2382	6.83296	0.5468864	-0.0863	-0.0858	8.267797	4.64854
2383	6.83069	0.5128425	-0.0804	-0.0800	8.284840	4.34038
2384	6.82784	0.4771427	-0.0803	-0.0798	8.302748	4.01903
2385	6.82484	0.4871306	-0.0865	-0.0860	8.298500	4.10920
2386	6.82179	0.4760799	-0.0834	-0.0829	8.304470	4.01019
2387	6.81889	0.4514582	-0.0835	-0.0830	8.316975	3.78974
2388	6.81589	0.4169400	-0.0834	-0.0829	8.334242	3.48214
2389	6.81310	0.3871318	-0.0835	-0.0830	8.349138	3.21809
2390	6.81005	0.3570191	-0.0835	-0.0830	8.364177	2.95290
2391	6.80736	0.3504766	-0.0776	-0.0772	8.367848	2.89567
2392	6.80446	0.3656695	-0.0867	-0.0862	8.361173	3.02948
2393	6.80193	0.3750643	-0.0776	-0.0772	8.357186	3.11252
2394	6.79965	0.3571297	-0.0834	-0.0829	8.366234	2.95476
2395	6.79717	0.3405461	-0.0837	-0.0833	8.374658	2.80943
2396	6.79484	0.3142733	-0.0836	-0.0831	8.387637	2.58013
2397	6.79231	0.2889780	-0.0897	-0.0892	8.400142	2.36068
2398	6.79014	0.2808706	-0.0867	-0.0862	8.404417	2.29072
2399	6.78725	0.2885117	-0.0838	-0.0833	8.401401	2.35699
2400	6.78466	0.2945734	-0.0838	-0.0833	8.399063	2.40968
2401	6.78084	0.3149233	-0.0928	-0.0923	8.390192	2.58684
2402	6.77815	0.3091140	-0.0836	-0.0832	8.393502	2.53645
2403	6.77691	0.3064084	-0.0806	-0.0801	8.395041	2.51301
2404	6.77598	0.2874193	-0.0837	-0.0833	8.404230	2.34830
2405	6.77500	0.2744972	-0.0869	-0.0865	8.410537	2.23669
2406	6.77402	0.2722308	-0.0869	-0.0865	8.411808	2.21720
2407	6.77288	0.2592722	-0.0899	-0.0894	8.418146	2.10572
2408	6.77169	0.2384442	-0.0868	-0.0863	8.428167	1.92732
2409	6.77045	0.2441591	-0.0901	-0.0896	8.425745	1.97625
2410	6.76937	0.2485083	-0.0870	-0.0865	8.423929	2.01356
2411	6.76802	0.2375396	-0.0779	-0.0774	8.429349	1.91980
2412	6.76689	0.2243006	-0.0900	-0.0895	8.435773	1.80699
2413	6.76559	0.2369220	-0.0840	-0.0836	8.430140	1.91465
2414	6.76430	0.2720752	-0.0871	-0.0866	8.413881	2.21649
2415	6.76317	0.2728535	-0.0840	-0.0836	8.413747	2.22327
2416	6.76182	0.2774411	-0.0869	-0.0865	8.411857	2.26297
2417	6.76053	0.2620787	-0.0811	-0.0806	8.419371	2.13061
2418	6.75950	0.2459972	-0.0812	-0.0807	8.427146	1.99262
2419	6.75826	0.2344868	-0.0872	-0.0867	8.432798	1.89427
2420	6.75712	0.2206430	-0.0872	-0.0867	8.439504	1.77639
2421	6.75578	0.2128599	-0.0873	-0.0868	8.443410	1.71037
2422	6.75475	0.2141075	-0.0870	-0.0865	8.443044	1.72100
2423	6.75340	0.2038981	-0.0872	-0.0867	8.448073	1.63459
2424	6.75154	0.1967810	-0.0811	-0.0806	8.451763	1.57455
2425	6.74968	0.1888772	-0.0873	-0.0868	8.455811	1.50804
2426	6.74741	0.1817695	-0.0845	-0.0840	8.459571	1.44840
2427	6.74519	0.1714122	-0.0812	-0.0808	8.464810	1.36171
2428	6.74277	0.1609760	-0.0844	-0.0839	8.470114	1.27470
2429	6.74070	0.1565411	-0.0844	-0.0839	8.472580	1.23787
2430	6.73894	0.1397225	-0.0813	-0.0809	8.480631	1.09857
2431	6.73693	0.1333722	-0.0813	-0.0809	8.483942	1.04627
2432	6.73502	0.1294552	-0.0842	-0.0837	8.486122	1.01410
2433	6.73321	0.1380431	-0.0814	-0.0810	8.482598	1.08488
2434	6.73141	0.1530116	-0.0813	-0.0809	8.476143	1.20887
2435	6.72996	0.1515240	-0.0904	-0.0899	8.477126	1.19657
2436	6.72836	0.1612971	-0.0875	-0.0870	8.472981	1.27791
2437	6.72692	0.1615024	-0.0844	-0.0839	8.473189	1.27968
2438	6.72557	0.1556690	-0.0755	-0.0751	8.476147	1.23116
2439	6.72392	0.1524804	-0.0876	-0.0871	8.477954	1.20472
2440	6.71711	0.1415245	-0.0907	-0.0902	8.484392	1.11415
2441	6.70607	0.1302819	-0.0783	-0.0778	8.491834	1.02175
2442	6.69658	0.1228326	-0.0907	-0.0902	8.497214	0.96082
2443	6.68946	0.1165828	-0.0877	-0.0872	8.501545	0.90982
2444	6.68688	0.1114418	-0.0877	-0.0873	8.504412	0.86790
2445	6.68626	0.1088854	-0.0877	-0.0872	8.505696	0.84707
2446	6.68616	0.1079076	-0.0877	-0.0873	8.506158	0.83911
2447	6.68601	0.1108389	-0.0787	-0.0782	8.504869	0.86300
2448	6.68575	0.1109751	-0.0817	-0.0813	8.504862	0.86412
2449	6.68585	0.1080921	-0.0846	-0.0841	8.506140	0.84062
2450	6.68565	0.1040619	-0.0817	-0.0813	8.507999	0.80784
2451	6.68544	0.1098279	-0.0849	-0.0845	8.505445	0.85477
2452	6.68544	0.1190046	-0.0849	-0.0844	8.501297	0.92975
2453	6.68523	0.1291547	-0.0849	-0.0844	8.496732	1.01309
2454	6.68384	0.1410287	-0.0877	-0.0873	8.491609	1.11112
2455	6.67961	0.1483805	-0.0818	-0.0814	8.489131	1.17220
2456	6.67466	0.1515999	-0.0847	-0.0842	8.488694	1.19912
2457	6.67162	0.1559498	-0.0849	-0.0844	8.487333	1.23542
2458	6.66941	0.1608403	-0.0881	-0.0876	8.485546	1.27628
2459	6.66879	0.1680901	-0.0849	-0.0845	8.482330	1.33691
2460	6.66853	0.1741963	-0.0851	-0.0846	8.479560	1.38809
2461	6.66843	0.1735408	-0.0880	-0.0875	8.479885	1.38259
2462	6.66848	0.1704018	-0.0881	-0.0876	8.481327	1.35628
