Scan Count	Temperature [ITS-90, deg C]	Conductivity [S/m]	Pressure, Strain Gauge [db]	Depth [salt water, m]	Oxygen Saturation, Weiss [ml/l]	Salinity, Practical [PSU]
1	16.83620	0.0028321	0.0088	0.0087	6.775610	0.02067
2	16.83404	0.0028321	0.0088	0.0087	6.775919	0.02067
3	16.83234	0.0028383	0.0088	0.0087	6.776159	0.02070
4	16.83207	0.0028228	0.0149	0.0148	6.776201	0.02062
5	16.83241	0.0028321	0.0088	0.0088	6.776151	0.02067
6	16.83261	0.0028228	0.0119	0.0118	6.776124	0.02062
7	16.83288	0.0028136	0.0088	0.0087	6.776087	0.02058
8	16.83370	0.0028136	0.0057	0.0057	6.775971	0.02058
9	16.83282	0.0028136	0.0057	0.0057	6.776097	0.02058
10	16.83085	0.0028136	0.0179	0.0178	6.776377	0.02058
11	16.82889	0.0028136	0.0118	0.0117	6.776657	0.02058
12	16.82015	0.0028043	0.0149	0.0148	6.777904	0.02053
13	16.80025	0.0028136	0.0087	0.0087	6.780740	0.02058
14	16.77677	0.0028136	0.0057	0.0057	6.784090	0.02057
15	16.76007	0.0028136	0.0087	0.0087	6.786475	0.02057
16	16.75805	0.0028228	0.0057	0.0057	6.786763	0.02062
17	16.76149	0.0029649	0.0057	0.0057	6.786241	0.02133
18	16.76467	0.0030667	0.0057	0.0057	6.785766	0.02185
19	16.76007	0.0031161	0.0057	0.0057	6.786413	0.02209
20	16.74392	0.0031532	0.0088	0.0087	6.788713	0.02228
21	16.72562	0.0033940	0.0118	0.0117	6.791280	0.02350
22	16.71502	0.0035824	0.0118	0.0117	6.792757	0.02447
23	16.71738	0.0037986	0.0118	0.0117	6.792374	0.02557
24	16.72204	0.0040456	0.0026	0.0026	6.791655	0.02684
25	16.72413	0.0042155	0.0057	0.0057	6.791320	0.02772
26	16.72184	0.0044256	0.0119	0.0118	6.791603	0.02881
27	16.71677	0.0046450	0.0088	0.0088	6.792281	0.02996
28	16.72130	0.0048860	0.0179	0.0178	6.791582	0.03121
29	16.72947	0.0050992	0.0057	0.0057	6.790367	0.03233
30	16.73717	0.0051703	0.0088	0.0087	6.789251	0.03270
31	16.74473	0.0052073	0.0118	0.0117	6.788162	0.03289
32	16.75007	0.0052970	0.0057	0.0057	6.787379	0.03336
33	16.75250	0.0052259	0.0088	0.0088	6.787047	0.03299
34	16.75487	0.0051610	0.0027	0.0027	6.786723	0.03265
35	16.75548	0.0051085	0.0118	0.0117	6.786648	0.03237
36	16.74872	0.0050652	0.0118	0.0118	6.787623	0.03215
37	16.74791	0.0050188	0.0057	0.0056	6.787748	0.03190
38	16.75061	0.0050034	0.0057	0.0057	6.787365	0.03182
39	16.74548	0.0049848	0.0088	0.0087	6.788103	0.03172
40	16.72413	0.0049570	0.0118	0.0117	6.791161	0.03159
41	16.69632	0.0049292	0.0088	0.0087	6.795147	0.03145
42	16.66645	0.0049076	0.0088	0.0087	6.799431	0.03134
43	16.63586	0.0049756	0.0057	0.0057	6.803804	0.03171
44	16.60637	0.0049570	0.0119	0.0118	6.808042	0.03162
45	16.57839	0.0049323	0.0088	0.0087	6.812069	0.03150
46	16.55096	0.0049200	0.0088	0.0088	6.816018	0.03144
47	16.52712	0.0050127	0.0088	0.0087	6.819431	0.03194
48	16.51410	0.0049848	0.0118	0.0118	6.821314	0.03179
49	16.51289	0.0049848	0.0119	0.0118	6.821488	0.03179
50	16.51242	0.0049725	0.0119	0.0118	6.821559	0.03173
51	16.51537	0.0049385	0.0119	0.0118	6.821140	0.03155
52	16.52202	0.0049169	0.0149	0.0148	6.820187	0.03143
53	16.52873	0.0049107	0.0149	0.0148	6.819221	0.03140
54	16.53115	0.0048921	0.0119	0.0118	6.818877	0.03130
55	16.52954	0.0048582	0.0089	0.0088	6.819117	0.03112
56	16.53484	0.0048303	0.0149	0.0148	6.818358	0.03097
57	16.54640	0.0048211	0.0118	0.0117	6.816697	0.03092
58	16.55896	0.0047964	0.0180	0.0179	6.814893	0.03079
59	16.57200	0.0047747	0.0119	0.0118	6.813022	0.03067
60	16.57792	0.0047593	0.0119	0.0118	6.812174	0.03059
61	16.56346	0.0047500	0.0088	0.0088	6.814256	0.03054
62	16.55587	0.0047253	0.0058	0.0058	6.815354	0.03042
63	16.56158	0.0046882	0.0119	0.0119	6.814540	0.03022
64	16.57281	0.0046697	0.0089	0.0088	6.812929	0.03012
65	16.58309	0.0046450	0.0150	0.0149	6.811455	0.02999
66	16.59150	0.0046079	0.0089	0.0088	6.810254	0.02979
67	16.60045	0.0045801	0.0058	0.0058	6.808974	0.02965
68	16.60946	0.0045739	0.0089	0.0088	6.807680	0.02961
69	16.60469	0.0045584	0.0058	0.0058	6.808370	0.02953
70	16.59580	0.0045461	0.0089	0.0089	6.809648	0.02947
71	16.59009	0.0045276	0.0089	0.0088	6.810474	0.02937
72	16.59009	0.0045183	0.0210	0.0209	6.810476	0.02932
73	16.59123	0.0044905	0.0149	0.0148	6.810318	0.02918
74	16.59708	0.0044719	0.0089	0.0088	6.809481	0.02908
75	16.60401	0.0044472	0.0210	0.0209	6.808490	0.02895
76	16.61047	0.0044318	0.0119	0.0118	6.807565	0.02887
77	16.53464	0.0096035	0.0424	0.0422	6.817325	0.05671
78	15.90187	0.6041180	0.1216	0.1209	6.743713	4.05018
79	15.25262	2.9702023	0.2526	0.2512	6.085440	23.11476
80	14.79909	3.0186048	0.3776	0.3755	6.116743	23.80384
81	14.49733	3.0398118	0.4812	0.4785	6.141122	24.17462
82	14.30393	3.0505864	0.5786	0.5754	6.157705	24.39026
83	14.18269	3.0550352	0.6914	0.6876	6.168891	24.50602
84	14.10631	3.0516268	0.7767	0.7725	6.178046	24.52420
85	14.06524	3.0299838	0.8072	0.8028	6.189681	24.35827
86	14.05248	3.0406581	0.8072	0.8028	6.187412	24.46102
87	14.08358	3.0514193	0.8072	0.8027	6.180502	24.53678
88	14.10499	3.0614428	0.8376	0.8330	6.174871	24.61207
89	14.08602	3.0713627	0.9077	0.9027	6.173508	24.71218
90	14.07187	3.0699485	0.9869	0.9815	6.175468	24.70865
91	14.06142	3.0635351	1.0266	1.0209	6.178733	24.65835
92	14.07093	3.0629233	1.0357	1.0300	6.177942	24.64685
93	14.12655	3.0673954	1.0388	1.0331	6.170608	24.65107
94	14.17855	3.0699597	1.0388	1.0331	6.164309	24.64067
95	14.21434	3.0730823	1.0327	1.0270	6.159524	24.64553
96	14.21981	3.0773705	1.0357	1.0300	6.157514	24.68000
97	14.17754	3.0815757	1.0388	1.0331	6.160507	24.74421
98	14.13445	3.0844337	1.0388	1.0331	6.164039	24.79714
99	14.10556	3.0873722	1.0358	1.0301	6.166061	24.84177
100	14.08827	3.0885750	1.0358	1.0301	6.167459	24.86357
101	14.07181	3.0881947	1.0358	1.0301	6.169306	24.87078
102	14.05348	3.0896309	1.0296	1.0239	6.170734	24.89536
103	14.03666	3.0910242	1.0297	1.0240	6.172020	24.91860
104	14.02378	3.0918899	1.0327	1.0270	6.173072	24.93462
105	14.01753	3.0923626	1.0358	1.0301	6.173564	24.94286
106	14.01628	3.0928784	1.0358	1.0301	6.173520	24.94826
107	14.01603	3.0929213	1.0327	1.0270	6.173531	24.94880
108	14.01366	3.0925346	1.0297	1.0240	6.173911	24.94690
109	14.00997	3.0917673	1.0388	1.0331	6.174556	24.94244
110	14.00560	3.0920067	1.0358	1.0301	6.174932	24.94740
111	14.00272	3.0933144	1.0388	1.0331	6.174789	24.96090
112	14.00297	3.0949723	1.0389	1.0331	6.174200	24.97551
113	14.00479	3.0943582	1.0358	1.0301	6.174219	24.96887
114	14.00460	3.0930995	1.0389	1.0332	6.174666	24.95778
115	14.00341	3.0938609	1.0358	1.0301	6.174531	24.96533
116	14.00235	3.0954759	1.0419	1.0361	6.174095	24.98040
117	14.00060	3.0962313	1.0358	1.0301	6.174021	24.98826
118	13.99916	3.0955926	1.0327	1.0271	6.174388	24.98350
119	13.99729	3.0954145	1.0358	1.0301	6.174644	24.98313
120	13.99617	3.0962007	1.0358	1.0301	6.174494	24.99086
121	13.99679	3.0975950	1.0358	1.0301	6.173956	25.00288
122	13.99923	3.0974169	1.0328	1.0271	6.173762	24.99971
123	13.99985	3.0947083	1.0420	1.0363	6.174616	24.97518
124	13.99785	3.0945364	1.0389	1.0331	6.174883	24.97494
125	13.99648	3.0957953	1.0419	1.0362	6.174599	24.98704
126	13.99866	3.0975029	1.0328	1.0271	6.173792	25.00084
127	14.00472	3.0976809	1.0359	1.0302	6.173099	24.99851
128	14.00685	3.0954881	1.0297	1.0241	6.173620	24.97760
129	14.00479	3.0958259	1.0389	1.0331	6.173721	24.98194
130	14.00366	3.0969438	1.0358	1.0301	6.173460	24.99263
131	14.00454	3.0979390	1.0420	1.0362	6.173031	25.00092
132	14.00560	3.0977977	1.0389	1.0331	6.172968	24.99898
133	14.00422	3.0966797	1.0450	1.0393	6.173491	24.98991
134	14.00016	3.0969746	1.0359	1.0302	6.173814	24.99517
135	13.99841	3.0983568	1.0389	1.0332	6.173528	25.00861
136	14.00135	3.0992968	1.0419	1.0362	6.172903	25.01508
137	14.00185	3.0962313	1.0389	1.0332	6.173890	24.98745
138	13.99698	3.0953838	1.0389	1.0332	6.174687	24.98306
139	13.99386	3.0968272	1.0358	1.0301	6.174523	24.99794
140	14.00016	3.0990572	1.0389	1.0331	6.173108	25.01372
141	14.01784	3.0996837	1.0359	1.0302	6.171050	25.00784
142	14.02590	3.0989156	1.0390	1.0332	6.170469	24.99578
143	14.01940	3.0968208	1.0359	1.0302	6.171857	24.98134
144	14.01172	3.0981785	1.0298	1.0241	6.172199	24.99841
145	14.01309	3.1013307	1.0420	1.0363	6.170987	25.02559
146	14.02528	3.1008880	1.0359	1.0302	6.169866	25.01375
147	14.03090	3.1008880	1.0328	1.0272	6.169279	25.01011
148	14.02653	3.1030024	1.0359	1.0302	6.169019	25.03177
149	14.02372	3.1078477	1.0328	1.0272	6.167671	25.07675
150	14.02784	3.1096808	1.0329	1.0272	6.166620	25.09039
151	14.03097	3.1108620	1.0359	1.0302	6.165894	25.09888
152	14.03241	3.1103575	1.0390	1.0333	6.165916	25.09345
153	14.03115	3.1098838	1.0450	1.0393	6.166206	25.09005
154	14.02972	3.1121297	1.0360	1.0303	6.165595	25.11099
155	14.03178	3.1144131	1.0329	1.0272	6.164607	25.12999
156	14.03516	3.1156258	1.0360	1.0303	6.163845	25.13859
157	14.03747	3.1149116	1.0360	1.0303	6.163846	25.13072
158	14.03784	3.1139760	1.0390	1.0333	6.164124	25.12215
159	14.03722	3.1165124	1.0421	1.0363	6.163331	25.14514
160	14.03928	3.1170727	1.0360	1.0303	6.162926	25.14879
161	14.04147	3.1173497	1.0391	1.0334	6.162605	25.14983
162	14.05029	3.1167770	1.0329	1.0272	6.161882	25.13899
163	14.06361	3.1164197	1.0391	1.0333	6.160617	25.12714
164	14.07193	3.1174911	1.0360	1.0303	6.159390	25.13126
165	14.08827	3.1181005	1.0390	1.0333	6.157487	25.12606
166	14.10662	3.1189133	1.0421	1.0363	6.155308	25.12136
167	14.11984	3.1192396	1.0390	1.0333	6.153826	25.11568
168	14.12717	3.1194490	1.0391	1.0333	6.152994	25.11277
169	14.13319	3.1202435	1.0360	1.0303	6.152102	25.11593
170	14.14090	3.1209272	1.0330	1.0274	6.151072	25.11700
171	14.14981	3.1216356	1.0360	1.0303	6.149911	25.11751
172	14.15966	3.1222332	1.0391	1.0333	6.148689	25.11642
173	14.16857	3.1228554	1.0390	1.0333	6.147557	25.11616
174	14.17635	3.1235085	1.0361	1.0304	6.146532	25.11691
175	14.18451	3.1240507	1.0330	1.0273	6.145504	25.11643
176	14.19455	3.1246053	1.0361	1.0304	6.144278	25.11483
177	14.20398	3.1250798	1.0331	1.0274	6.143144	25.11293
178	14.21070	3.1255297	1.0392	1.0335	6.142298	25.11256
179	14.21585	3.1260598	1.0421	1.0364	6.141588	25.11392
180	14.22289	3.1259118	1.0331	1.0274	6.140910	25.10805
181	14.23294	3.1266576	1.0361	1.0304	6.139620	25.10814
182	14.24112	3.1269041	1.0361	1.0304	6.138693	25.10503
183	14.24288	3.1272246	1.0361	1.0304	6.138404	25.10673
184	14.24357	3.1275206	1.0362	1.0305	6.138233	25.10890
185	14.24942	3.1275760	1.0362	1.0305	6.137610	25.10560
186	14.25697	3.1280014	1.0392	1.0335	6.136688	25.10448
187	14.26087	3.1283836	1.0300	1.0244	6.136158	25.10534
188	14.26213	3.1287104	1.0362	1.0305	6.135918	25.10742
189	14.26565	3.1290989	1.0269	1.0213	6.135425	25.10858
190	14.27068	3.1293640	1.0332	1.0275	6.134816	25.10767
191	14.27270	3.1295736	1.0361	1.0304	6.134538	25.10822
192	14.27194	3.1298080	1.0393	1.0335	6.134538	25.11079
193	14.27471	3.1294441	1.0393	1.0336	6.134374	25.10577
194	14.27931	3.1300176	1.0393	1.0335	6.133708	25.10787
195	14.28145	3.1301964	1.0362	1.0305	6.133427	25.10807
196	14.28025	3.1304370	1.0362	1.0305	6.133470	25.11098
197	14.28063	3.1305480	1.0362	1.0305	6.133394	25.11171
198	14.28460	3.1307330	1.0363	1.0306	6.132923	25.11078
199	14.29001	3.1309673	1.0363	1.0306	6.132287	25.10935
200	14.29549	3.1313250	1.0363	1.0306	6.131602	25.10897
201	14.30034	3.1316766	1.0363	1.0306	6.130985	25.10894
202	14.30254	3.1318308	1.0393	1.0336	6.130706	25.10888
203	14.30273	3.1315347	1.0424	1.0366	6.130785	25.10613
204	14.30519	3.1300112	1.0393	1.0336	6.131041	25.09106
205	14.30758	3.1307636	1.0424	1.0367	6.130543	25.09617
206	14.30727	3.1316518	1.0363	1.0306	6.130279	25.10424
207	14.30431	3.1317135	1.0363	1.0306	6.130563	25.10670
208	14.30229	3.1307020	1.0394	1.0337	6.131109	25.09905
209	14.30412	3.1305848	1.0333	1.0276	6.130960	25.09683
210	14.30651	3.1311769	1.0364	1.0307	6.130515	25.10052
211	14.30878	3.1315038	1.0455	1.0397	6.130172	25.10194
212	14.31117	3.1314606	1.0424	1.0367	6.129940	25.10001
213	14.31552	3.1314173	1.0425	1.0368	6.129506	25.09682
214	14.32037	3.1320095	1.0303	1.0246	6.128809	25.09892
215	14.32497	3.1326695	1.0303	1.0246	6.128115	25.10178
216	14.32768	3.1328422	1.0365	1.0308	6.127778	25.10156
217	14.32989	3.1325461	1.0425	1.0368	6.127649	25.09751
218	14.33367	3.1322499	1.0364	1.0307	6.127359	25.09244
219	14.33796	3.1323671	1.0395	1.0337	6.126878	25.09070
220	14.34200	3.1323979	1.0395	1.0338	6.126452	25.08837
221	14.34654	3.1326076	1.0457	1.0399	6.125915	25.08728
222	14.35038	3.1334713	1.0365	1.0308	6.125231	25.09244
223	14.35284	3.1338785	1.0395	1.0338	6.124842	25.09444
224	14.35272	3.1332615	1.0365	1.0308	6.125061	25.08907
225	14.35347	3.1321325	1.0365	1.0308	6.125359	25.07860
226	14.35436	3.1323978	1.0366	1.0309	6.125180	25.08038
227	14.35467	3.1331566	1.0426	1.0369	6.124894	25.08688
228	14.35442	3.1334404	1.0396	1.0339	6.124826	25.08955
229	14.35543	3.1336193	1.0457	1.0400	6.124662	25.09048
230	14.35789	3.1336810	1.0427	1.0370	6.124389	25.08943
231	14.36174	3.1329961	1.0366	1.0309	6.124221	25.08089
232	14.36565	3.1324594	1.0458	1.0400	6.123997	25.07362
233	14.36811	3.1336192	1.0457	1.0400	6.123358	25.08228
234	14.36906	3.1341869	1.0458	1.0400	6.123071	25.08669
235	14.36761	3.1332182	1.0427	1.0370	6.123543	25.07906
236	14.36698	3.1316265	1.0397	1.0340	6.124138	25.06541
237	14.36672	3.1316821	1.0519	1.0461	6.124145	25.06606
238	14.36590	3.1330269	1.0398	1.0341	6.123782	25.07847
239	14.36351	3.1334095	1.0428	1.0371	6.123901	25.08340
240	14.36281	3.1321016	1.0458	1.0401	6.124408	25.07229
241	14.36458	3.1309666	1.0397	1.0340	6.124604	25.06112
242	14.36590	3.1316821	1.0398	1.0340	6.124230	25.06659
243	14.36710	3.1329035	1.0398	1.0341	6.123700	25.07661
244	14.36723	3.1329035	1.0428	1.0371	6.123687	25.07653
245	14.36836	3.1316265	1.0399	1.0341	6.123995	25.06451
246	14.37335	3.1298871	1.0399	1.0342	6.124061	25.04592
247	14.38004	3.1301029	1.0429	1.0371	6.123300	25.04351
248	14.38888	3.1319533	1.0429	1.0372	6.121776	25.05415
249	14.39052	3.1322185	1.0429	1.0372	6.121518	25.05544
250	14.39166	3.1305469	1.0399	1.0342	6.121957	25.03994
251	14.39829	3.1277841	1.0430	1.0373	6.122194	25.01127
252	14.40498	3.1283205	1.0460	1.0403	6.121327	25.01169
253	14.42198	3.1300778	1.0430	1.0373	6.118995	25.01626
254	14.43039	3.1300099	1.0369	1.0312	6.118153	25.01025
255	14.43595	3.1277837	1.0430	1.0373	6.118320	24.98703
256	14.44879	3.1263595	1.0430	1.0373	6.117473	24.96622
257	14.46644	3.1277526	1.0430	1.0372	6.115198	24.96716
258	14.47929	3.1292447	1.0430	1.0373	6.113384	24.97206
259	14.49132	3.1286156	1.0430	1.0373	6.112357	24.95879
260	14.50525	3.1266240	1.0400	1.0343	6.111586	24.93232
261	14.52458	3.1258347	1.0431	1.0373	6.109863	24.91299
262	14.54030	3.1268887	1.0400	1.0343	6.107902	24.91220
263	14.55388	3.1280538	1.0431	1.0374	6.106126	24.91376
264	14.56910	3.1282263	1.0340	1.0283	6.104509	24.90554
265	14.58326	3.1270917	1.0401	1.0344	6.103432	24.88651
266	14.59793	3.1260312	1.0401	1.0344	6.102279	24.86783
267	14.60892	3.1264133	1.0371	1.0314	6.101028	24.86417
268	14.61438	3.1274983	1.0402	1.0345	6.100112	24.87021
269	14.61794	3.1278990	1.0432	1.0374	6.099616	24.87146
270	14.62087	3.1272455	1.0433	1.0375	6.099531	24.86385
271	14.62296	3.1262344	1.0432	1.0375	6.099649	24.85364
272	14.62443	3.1264317	1.0402	1.0345	6.099434	24.85444
273	14.62532	3.1274242	1.0402	1.0345	6.099017	24.86258
274	14.62627	3.1278435	1.0402	1.0345	6.098782	24.86566
275	14.62652	3.1276338	1.0433	1.0376	6.098825	24.86365
276	14.62684	3.1269618	1.0342	1.0285	6.099013	24.85755
277	14.62722	3.1267707	1.0464	1.0406	6.099037	24.85563
278	14.62805	3.1272762	1.0403	1.0346	6.098786	24.85954
279	14.62849	3.1278126	1.0434	1.0377	6.098564	24.86396
280	14.62862	3.1277201	1.0434	1.0377	6.098582	24.86307
281	14.62843	3.1270666	1.0403	1.0346	6.098816	24.85746
282	14.62856	3.1271591	1.0434	1.0376	6.098773	24.85819
283	14.62907	3.1281271	1.0434	1.0377	6.098402	24.86636
284	14.62843	3.1281702	1.0434	1.0376	6.098453	24.86714
285	14.62716	3.1268015	1.0465	1.0407	6.099033	24.85594
286	14.62652	3.1257412	1.0404	1.0347	6.099447	24.84704
287	14.62614	3.1266844	1.0405	1.0347	6.099176	24.85556
288	14.62449	3.1278743	1.0374	1.0317	6.098954	24.86706
289	14.62099	3.1274551	1.0404	1.0347	6.099449	24.86561
290	14.61826	3.1260557	1.0435	1.0377	6.100189	24.85507
291	14.61699	3.1255256	1.0405	1.0348	6.100494	24.85123
292	14.61527	3.1261790	1.0405	1.0348	6.100454	24.85806
293	14.61267	3.1272455	1.0466	1.0409	6.100370	24.86908
294	14.60873	3.1272148	1.0497	1.0440	6.100784	24.87133
295	14.60536	3.1262099	1.0436	1.0379	6.101459	24.86466
296	14.60435	3.1254024	1.0406	1.0348	6.101829	24.85821
297	14.60403	3.1260558	1.0497	1.0440	6.101646	24.86415
298	14.60282	3.1270977	1.0497	1.0439	6.101427	24.87407
299	14.59990	3.1269497	1.0437	1.0380	6.101775	24.87464
300	14.59768	3.1257045	1.0467	1.0410	6.102413	24.86512
301	14.59736	3.1251744	1.0407	1.0349	6.102619	24.86067
302	14.59698	3.1263271	1.0436	1.0379	6.102279	24.87104
303	14.59501	3.1270423	1.0437	1.0380	6.102245	24.87858
304	14.59196	3.1259696	1.0437	1.0380	6.102911	24.87110
305	14.59031	3.1245150	1.0437	1.0380	6.103559	24.85938
306	14.58967	3.1246629	1.0438	1.0381	6.103575	24.86108
307	14.58859	3.1260313	1.0407	1.0350	6.103235	24.87379
308	14.58555	3.1262718	1.0438	1.0381	6.103468	24.87785
309	14.58269	3.1249897	1.0468	1.0411	6.104183	24.86841
310	14.58237	3.1241268	1.0377	1.0320	6.104500	24.86104
311	14.58256	3.1249280	1.0408	1.0351	6.104217	24.86795
312	14.58161	3.1261485	1.0439	1.0382	6.103912	24.87928
313	14.57882	3.1258218	1.0409	1.0352	6.104306	24.87820
314	14.57729	3.1243364	1.0409	1.0352	6.104951	24.86612
315	14.57736	3.1239543	1.0469	1.0412	6.105071	24.86272
316	14.57717	3.1251068	1.0470	1.0413	6.104711	24.87297
317	14.57583	3.1255815	1.0409	1.0352	6.104691	24.87799
318	14.57399	3.1246323	1.0379	1.0321	6.105192	24.87083
319	14.57367	3.1241701	1.0409	1.0352	6.105377	24.86697
320	14.57450	3.1248973	1.0441	1.0383	6.105053	24.87283
321	14.57482	3.1259082	1.0502	1.0444	6.104687	24.88151
322	14.57386	3.1251747	1.0502	1.0444	6.105027	24.87567
323	14.57285	3.1233874	1.0441	1.0383	6.105720	24.86062
324	14.57323	3.1222844	1.0502	1.0444	6.106044	24.85068
325	14.57412	3.1237140	1.0472	1.0414	6.105482	24.86267
326	14.57348	3.1255507	1.0472	1.0414	6.104942	24.87922
327	14.56961	3.1247802	1.0411	1.0354	6.105592	24.87492
328	14.56726	3.1219333	1.0502	1.0445	6.106772	24.85140
329	14.56555	3.1200050	1.0442	1.0384	6.107583	24.83555
330	14.57006	3.1217854	1.0351	1.0294	6.106534	24.84832
331	14.58091	3.1232394	1.0473	1.0415	6.104942	24.85417
332	14.58929	3.1224629	1.0443	1.0385	6.104339	24.84200
333	14.59774	3.1204113	1.0442	1.0385	6.104148	24.81860
334	14.60860	3.1191423	1.0534	1.0476	6.103452	24.80054
335	14.61362	3.1203865	1.0413	1.0355	6.102529	24.80827
336	14.61438	3.1213228	1.0382	1.0325	6.102142	24.81600
337	14.61375	3.1211011	1.0412	1.0355	6.102281	24.81446
338	14.61616	3.1205651	1.0474	1.0416	6.102209	24.80822
339	14.62157	3.1203001	1.0443	1.0386	6.101743	24.80245
340	14.62722	3.1206019	1.0413	1.0356	6.101064	24.80150
341	14.63053	3.1207128	1.0444	1.0386	6.100689	24.80037
342	14.63167	3.1205341	1.0444	1.0387	6.100631	24.79808
343	14.63288	3.1200968	1.0414	1.0357	6.100651	24.79347
344	14.63492	3.1201830	1.0475	1.0417	6.100414	24.79293
345	14.63682	3.1208051	1.0414	1.0356	6.100014	24.79718
346	14.63727	3.1207743	1.0415	1.0358	6.099979	24.79662
347	14.63695	3.1201645	1.0476	1.0418	6.100212	24.79148
348	14.63759	3.1197333	1.0476	1.0418	6.100288	24.78729
349	14.63924	3.1204170	1.0475	1.0418	6.099894	24.79224
350	14.64007	3.1207866	1.0476	1.0418	6.099688	24.79495
351	14.63956	3.1201213	1.0446	1.0388	6.099959	24.78944
352	14.63975	3.1193822	1.0446	1.0388	6.100182	24.78284
353	14.64058	3.1199735	1.0507	1.0450	6.099903	24.78749
354	14.64127	3.1212178	1.0476	1.0419	6.099423	24.79796
355	14.63994	3.1208913	1.0477	1.0420	6.099667	24.79595
356	14.63816	3.1189079	1.0446	1.0389	6.100501	24.77969
357	14.63778	3.1175038	1.0417	1.0359	6.101001	24.76762
358	14.63689	3.1185815	1.0447	1.0389	6.100738	24.77763
359	14.63485	3.1203863	1.0386	1.0329	6.100354	24.79476
360	14.63142	3.1200660	1.0356	1.0299	6.100811	24.79413
361	14.62843	3.1184892	1.0417	1.0360	6.101635	24.78220
362	14.62640	3.1176024	1.0417	1.0360	6.102135	24.77571
363	14.62411	3.1180766	1.0448	1.0391	6.102214	24.78133
364	14.62188	3.1190374	1.0448	1.0391	6.102126	24.79117
365	14.61890	3.1191114	1.0448	1.0391	6.102407	24.79372
366	14.61635	3.1184339	1.0387	1.0330	6.102891	24.78940
367	14.61515	3.1175348	1.0418	1.0361	6.103310	24.78227
368	14.61483	3.1177811	1.0479	1.0422	6.103262	24.78464
369	14.61470	3.1189944	1.0450	1.0392	6.102876	24.79536
370	14.61280	3.1192839	1.0480	1.0422	6.102976	24.79912
371	14.61064	3.1179290	1.0449	1.0391	6.103643	24.78860
372	14.60994	3.1164758	1.0450	1.0392	6.104193	24.77629
373	14.60994	3.1170361	1.0481	1.0423	6.104009	24.78121
374	14.60943	3.1187850	1.0480	1.0423	6.103485	24.79688
375	14.60593	3.1191115	1.0511	1.0453	6.103736	24.80197
376	14.60244	3.1175103	1.0481	1.0423	6.104621	24.79014
377	14.60098	3.1156262	1.0450	1.0393	6.105391	24.77453
378	14.59856	3.1157925	1.0481	1.0423	6.105584	24.77753
379	14.59812	3.1174857	1.0512	1.0454	6.105072	24.79267
380	14.59628	3.1180954	1.0452	1.0394	6.105060	24.79920
381	14.59437	3.1168023	1.0451	1.0394	6.105682	24.78906
382	14.59869	3.1153800	1.0422	1.0364	6.105707	24.77383
383	14.60460	3.1159402	1.0391	1.0334	6.104916	24.77499
384	14.60555	3.1170361	1.0391	1.0334	6.104458	24.78400
385	14.60454	3.1168022	1.0421	1.0364	6.104639	24.78259
386	14.60466	3.1157370	1.0422	1.0365	6.104977	24.77316
387	14.60562	3.1154415	1.0361	1.0305	6.104976	24.76996
388	14.60663	3.1160633	1.0391	1.0334	6.104667	24.77477
389	14.60708	3.1167406	1.0484	1.0426	6.104399	24.78043
390	14.60739	3.1165989	1.0392	1.0335	6.104413	24.77899
391	14.60759	3.1158539	1.0423	1.0366	6.104638	24.77233
392	14.60828	3.1151706	1.0362	1.0305	6.104792	24.76589
393	14.60860	3.1155892	1.0393	1.0336	6.104621	24.76936
394	14.60867	3.1168144	1.0423	1.0366	6.104212	24.78007
395	14.60847	3.1167713	1.0454	1.0397	6.104245	24.77982
396	14.60752	3.1152321	1.0424	1.0366	6.104850	24.76691
397	14.60682	3.1140010	1.0394	1.0337	6.105326	24.75656
398	14.60555	3.1145242	1.0455	1.0398	6.105285	24.76195
399	14.60390	3.1162419	1.0515	1.0458	6.104889	24.77808
400	14.60111	3.1165005	1.0425	1.0368	6.105090	24.78213
401	14.59863	3.1149675	1.0486	1.0428	6.105849	24.77024
402	14.59634	3.1136318	1.0456	1.0398	6.106523	24.75997
403	14.59386	3.1136872	1.0487	1.0429	6.106759	24.76203
404	14.59215	3.1148506	1.0365	1.0308	6.106552	24.77334
405	14.58923	3.1156202	1.0425	1.0368	6.106599	24.78195
406	14.58593	3.1152324	1.0426	1.0369	6.107065	24.78065
407	14.58618	3.1143459	1.0457	1.0399	6.107331	24.77270
408	14.59063	3.1135457	1.0457	1.0400	6.107138	24.76285
409	14.59672	3.1136318	1.0426	1.0369	6.106484	24.75973
410	14.59996	3.1144996	1.0366	1.0309	6.105866	24.76529
411	14.59863	3.1150537	1.0397	1.0339	6.105821	24.77100
412	14.59558	3.1146721	1.0428	1.0370	6.106259	24.76959
413	14.59342	3.1137549	1.0397	1.0340	6.106783	24.76291
414	14.59386	3.1132502	1.0488	1.0431	6.106903	24.75820
415	14.59533	3.1136318	1.0458	1.0401	6.106628	24.76062
416	14.59571	3.1143150	1.0428	1.0371	6.106364	24.76638
417	14.59412	3.1144936	1.0428	1.0371	6.106468	24.76895
418	14.59190	3.1138411	1.0459	1.0401	6.106911	24.76464
419	14.59088	3.1131333	1.0459	1.0401	6.107248	24.75907
420	14.59158	3.1132194	1.0429	1.0372	6.107148	24.75938
421	14.59215	3.1137241	1.0429	1.0372	6.106923	24.76345
422	14.59132	3.1136626	1.0429	1.0372	6.107028	24.76343
423	14.59018	3.1130964	1.0430	1.0372	6.107332	24.75919
424	14.59018	3.1130102	1.0490	1.0433	6.107360	24.75843
425	14.59044	3.1132502	1.0430	1.0373	6.107255	24.76038
426	14.59031	3.1133179	1.0461	1.0404	6.107246	24.76105
427	14.58974	3.1130102	1.0461	1.0404	6.107406	24.75871
428	14.58961	3.1125671	1.0430	1.0373	6.107565	24.75491
429	14.58993	3.1122840	1.0401	1.0343	6.107625	24.75222
430	14.59075	3.1125671	1.0431	1.0374	6.107448	24.75418
431	14.59126	3.1135764	1.0401	1.0344	6.107063	24.76272
432	14.59037	3.1136626	1.0431	1.0374	6.107126	24.76404
433	14.58751	3.1121917	1.0493	1.0435	6.107904	24.75294
434	14.58663	3.1108257	1.0432	1.0375	6.108445	24.74151
435	14.58701	3.1112071	1.0402	1.0345	6.108280	24.74462
436	14.58643	3.1128133	1.0402	1.0345	6.107810	24.75909
437	14.58243	3.1133365	1.0524	1.0466	6.108048	24.76622
438	14.57761	3.1121241	1.0463	1.0405	6.108943	24.75864
439	14.57539	3.1106966	1.0464	1.0407	6.109642	24.74752
440	14.57367	3.1102659	1.0464	1.0406	6.109960	24.74483
441	14.57183	3.1110596	1.0464	1.0407	6.109887	24.75297
442	14.56879	3.1121611	1.0495	1.0437	6.109837	24.76458
443	14.56396	3.1123335	1.0434	1.0377	6.110276	24.76916
444	14.55971	3.1111828	1.0526	1.0468	6.111092	24.76175
445	14.55851	3.1099154	1.0495	1.0438	6.111634	24.75139
446	14.55914	3.1097000	1.0496	1.0438	6.111640	24.74909
447	14.56086	3.1107090	1.0465	1.0407	6.111131	24.75687
448	14.55971	3.1114412	1.0496	1.0438	6.111007	24.76402
449	14.55610	3.1110044	1.0406	1.0348	6.111522	24.76249
450	14.55489	3.1099708	1.0436	1.0378	6.111987	24.75417
451	14.55673	3.1096754	1.0527	1.0469	6.111896	24.75041
452	14.55806	3.1104445	1.0467	1.0409	6.111505	24.75632
453	14.55616	3.1109121	1.0467	1.0409	6.111546	24.76164
454	14.55267	3.1102907	1.0498	1.0440	6.112110	24.75839
455	14.55096	3.1092879	1.0528	1.0470	6.112617	24.75067
456	14.55134	3.1089619	1.0498	1.0440	6.112685	24.74757
457	14.55229	3.1097616	1.0498	1.0441	6.112324	24.75399
458	14.55153	3.1104445	1.0468	1.0410	6.112177	24.76047
459	14.54899	3.1099708	1.0438	1.0381	6.112594	24.75792
460	14.54747	3.1088450	1.0469	1.0411	6.113122	24.74900
461	14.54766	3.1085436	1.0499	1.0442	6.113202	24.74623
462	14.54829	3.1094664	1.0468	1.0411	6.112832	24.75393
463	14.54722	3.1100570	1.0499	1.0442	6.112748	24.75981
464	14.54468	3.1091342	1.0499	1.0442	6.113313	24.75331
465	14.54366	3.1078117	1.0439	1.0382	6.113854	24.74234
466	14.54443	3.1076333	1.0562	1.0504	6.113835	24.74028
467	14.54519	3.1088881	1.0440	1.0382	6.113342	24.75083
468	14.54379	3.1100262	1.0501	1.0443	6.113110	24.76172
469	14.54062	3.1090850	1.0440	1.0383	6.113747	24.75546
470	14.53884	3.1077933	1.0501	1.0443	6.114356	24.74524
471	14.53827	3.1077810	1.0471	1.0413	6.114419	24.74549
472	14.53656	3.1082546	1.0471	1.0413	6.114438	24.75075
473	14.53396	3.1081070	1.0532	1.0475	6.114755	24.75110
474	14.53187	3.1079594	1.0502	1.0445	6.115019	24.75113
475	14.53086	3.1085807	1.0471	1.0413	6.114918	24.75724
476	14.52940	3.1085807	1.0502	1.0445	6.115068	24.75817
477	14.52750	3.1077012	1.0502	1.0445	6.115554	24.75165
478	14.52705	3.1072214	1.0472	1.0415	6.115758	24.74771
479	14.52743	3.1078426	1.0534	1.0476	6.115514	24.75293
480	14.52705	3.1081071	1.0473	1.0415	6.115466	24.75550
481	14.52572	3.1074306	1.0534	1.0476	6.115826	24.75039
482	14.52534	3.1070185	1.0504	1.0447	6.116001	24.74701
483	14.52591	3.1074183	1.0474	1.0417	6.115811	24.75017
484	14.52597	3.1080518	1.0566	1.0508	6.115595	24.75569
485	14.52509	3.1076089	1.0535	1.0477	6.115832	24.75237
486	14.52401	3.1065142	1.0505	1.0447	6.116305	24.74343
487	14.52433	3.1062190	1.0597	1.0538	6.116370	24.74063
488	14.52528	3.1070431	1.0566	1.0508	6.116000	24.74727
489	14.52502	3.1077627	1.0475	1.0418	6.115788	24.75376
490	14.52319	3.1073137	1.0445	1.0387	6.116126	24.75098
491	14.52179	3.1064281	1.0506	1.0448	6.116562	24.74408
492	14.52211	3.1063605	1.0506	1.0448	6.116552	24.74329
493	14.52243	3.1066926	1.0537	1.0479	6.116409	24.74600
494	14.52198	3.1064281	1.0446	1.0389	6.116542	24.74396
495	14.52141	3.1060530	1.0446	1.0388	6.116725	24.74103
496	14.52141	3.1062806	1.0507	1.0449	6.116650	24.74303
497	14.52154	3.1069570	1.0507	1.0449	6.116413	24.74889
498	14.52052	3.1067356	1.0538	1.0480	6.116591	24.74759
499	14.51894	3.1057763	1.0569	1.0511	6.117071	24.74016
500	14.51869	3.1053029	1.0508	1.0450	6.117253	24.73616
501	14.51926	3.1056779	1.0477	1.0420	6.117071	24.73910
502	14.51938	3.1063667	1.0478	1.0421	6.116830	24.74507
503	14.51786	3.1066004	1.0539	1.0481	6.116909	24.74809
504	14.51571	3.1059547	1.0509	1.0451	6.117345	24.74379
505	14.51444	3.1048295	1.0448	1.0391	6.117847	24.73470
506	14.51495	3.1045405	1.0539	1.0481	6.117890	24.73184
507	14.51583	3.1055181	1.0479	1.0422	6.117476	24.73987
508	14.51495	3.1064282	1.0510	1.0452	6.117266	24.74843
509	14.51178	3.1058072	1.0510	1.0452	6.117798	24.74499
510	14.50988	3.1045221	1.0541	1.0483	6.118419	24.73490
511	14.50988	3.1043008	1.0480	1.0422	6.118492	24.73295
512	14.50956	3.1052169	1.0511	1.0453	6.118221	24.74121
513	14.50684	3.1057088	1.0481	1.0423	6.118339	24.74727
514	14.50361	3.1050079	1.0542	1.0484	6.118904	24.74316
515	14.50228	3.1042148	1.0512	1.0454	6.119303	24.73703
516	14.50247	3.1043377	1.0604	1.0545	6.119243	24.73799
517	14.50215	3.1049772	1.0512	1.0454	6.119064	24.74381
518	14.50057	3.1051247	1.0512	1.0454	6.119178	24.74612
519	14.49841	3.1045530	1.0513	1.0455	6.119590	24.74246
520	14.49746	3.1039197	1.0513	1.0456	6.119897	24.73749
521	14.49733	3.1039197	1.0544	1.0486	6.119910	24.73757
522	14.49752	3.1045530	1.0574	1.0516	6.119681	24.74302
523	14.49689	3.1045960	1.0513	1.0456	6.119732	24.74380
524	14.49543	3.1025305	1.0362	1.0305	6.120565	24.72657
525	14.49683	3.1008833	1.0209	1.0153	6.120967	24.71120
526	14.50633	3.1017067	0.9997	0.9942	6.119715	24.71241
527	14.50937	3.1021185	1.0026	0.9971	6.119265	24.71410
528	14.49993	3.1019096	1.0058	1.0003	6.120307	24.71826
529	14.48549	3.1015594	1.0028	0.9972	6.121911	24.72435
530	14.46821	3.1013568	1.0058	1.0002	6.123761	24.73356
531	14.46043	3.1012893	0.9997	0.9942	6.124586	24.73792
532	14.46005	3.1012647	1.0028	0.9973	6.124633	24.73794
533	14.45202	3.1012095	1.0028	0.9973	6.125481	24.74257
534	14.44664	3.1010436	1.0089	1.0034	6.126091	24.74453
535	14.44892	3.1008530	1.0028	0.9973	6.125919	24.74140
536	14.45417	3.1008223	1.0060	1.0004	6.125387	24.73779
537	14.45366	3.0984013	1.0669	1.0611	6.126243	24.71678
538	14.37423	3.0875782	1.1857	1.1791	6.138056	24.67186
539	14.23213	3.0823662	1.3382	1.3309	6.154559	24.71626
540	14.10675	3.0809083	1.5088	1.5005	6.168124	24.78347
541	14.01940	3.0797629	1.6764	1.6672	6.177647	24.82932
542	13.95947	3.0793713	1.8471	1.8370	6.184062	24.86437
543	13.91414	3.0790102	2.0360	2.0248	6.188942	24.89034
544	13.86079	3.0786001	2.2188	2.2066	6.194690	24.92111
545	13.79347	3.0758863	2.4230	2.4097	6.202705	24.94038
546	13.69723	3.0715141	2.6424	2.6278	6.214366	24.96361
547	13.59359	3.0743201	2.8649	2.8491	6.224364	25.05628
548	13.44570	3.1117854	3.0782	3.0613	6.226988	25.49172
549	13.29474	3.1339270	3.3190	3.3007	6.235187	25.79373
550	13.14733	3.1401073	3.5597	3.5401	6.248603	25.95000
551	13.00028	3.1401583	3.8126	3.7916	6.264191	26.05093
552	12.85843	3.1356657	4.0624	4.0401	6.280914	26.10711
553	12.70652	3.1272967	4.3306	4.3068	6.300196	26.13475
554	12.56238	3.1276250	4.5744	4.5492	6.315574	26.23766
555	12.45810	3.1335226	4.8273	4.8008	6.324658	26.36508
556	12.37066	3.1347144	5.0741	5.0462	6.333663	26.43744
557	12.27937	3.1338515	5.3180	5.2887	6.343862	26.49361
558	12.19318	3.1308852	5.5739	5.5432	6.354313	26.52668
559	12.10008	3.1280185	5.8268	5.7947	6.365510	26.56570
560	11.99516	3.1209197	6.0859	6.0523	6.379621	26.57345
561	11.86850	3.1123316	6.3449	6.3100	6.396739	26.58261
562	11.71869	3.1060461	6.5917	6.5554	6.415621	26.63010
563	11.54799	3.1014740	6.8599	6.8221	6.436260	26.70912
564	11.32371	3.0971200	7.1189	7.0797	6.462900	26.82956
565	11.09374	3.0986828	7.3749	7.3343	6.488029	27.01221
566	10.87026	3.1009218	7.6370	7.5949	6.512285	27.19846
567	10.67935	3.1010406	7.9081	7.8645	6.533821	27.34157
568	10.54610	3.1008945	8.1793	8.1342	6.549006	27.43989
569	10.43099	3.1007482	8.4323	8.3858	6.562172	27.52509
570	10.32996	3.1003069	8.7004	8.6524	6.573887	27.59712
571	10.23015	3.0978257	8.9686	8.9191	6.586332	27.64842
572	10.04461	3.0959296	9.2306	9.1797	6.608436	27.77132
573	9.84155	3.0973015	9.4957	9.4433	6.631306	27.94130
574	9.60941	3.0971073	9.7548	9.7009	6.658325	28.11986
575	9.30897	3.0983759	10.0168	9.9615	6.692862	28.36910
576	9.04684	3.0992327	10.2819	10.2252	6.723297	28.58676
577	8.83864	3.1000582	10.5562	10.4979	6.747538	28.76295
578	8.62363	3.0998884	10.8212	10.7615	6.773147	28.93610
579	8.43761	3.0993927	11.0986	11.0374	6.795569	29.08361
580	8.28479	3.0993881	11.3698	11.3070	6.813882	29.20990
581	8.16488	3.0998318	11.6379	11.5737	6.828092	29.31424
582	8.07739	3.0998021	11.9061	11.8404	6.838649	29.38700
583	8.01746	3.0994771	12.1773	12.1100	6.846036	29.43377
584	7.97742	3.0993055	12.4454	12.3767	6.850958	29.46553
585	7.95082	3.0984703	12.7258	12.6555	6.854568	29.47903
586	7.93231	3.0990665	13.0031	12.9313	6.856535	29.50078
587	7.91834	3.0995706	13.2773	13.2040	6.857997	29.51777
588	7.90819	3.0993373	13.5578	13.4828	6.859339	29.52376
589	7.90085	3.0991900	13.8319	13.7555	6.860301	29.52828
590	7.89422	3.0990426	14.0970	14.0191	6.861178	29.53223
591	7.88572	3.0989691	14.3835	14.3040	6.862247	29.53851
592	7.85122	3.0992153	14.6547	14.5737	6.866319	29.57017
593	7.77351	3.0997753	14.9259	14.8434	6.875490	29.64187
594	7.69411	3.0997455	15.2062	15.1221	6.885160	29.70902
595	7.62995	3.1003668	15.4653	15.3797	6.892683	29.77029
596	7.57901	3.1002507	15.7303	15.6433	6.898953	29.81257
597	7.53866	3.1004294	15.9985	15.9100	6.903796	29.84897
598	7.48337	3.1008970	16.2727	16.1827	6.910334	29.90139
599	7.39923	3.1011930	16.5470	16.4554	6.920491	29.97704
600	7.32092	3.1014888	16.8152	16.7221	6.929952	30.04792
601	7.25677	3.1012867	17.0863	16.9918	6.937930	30.10138
602	7.20191	3.1016684	17.3575	17.2614	6.944494	30.15317
603	7.15390	3.1010237	17.6349	17.5372	6.950721	30.18804
604	7.11627	3.1009934	17.9059	17.8068	6.955378	30.22053
605	7.08319	3.1014363	18.1742	18.0736	6.959246	30.25417
606	7.05634	3.1016825	18.4484	18.3462	6.962444	30.28028
607	7.04136	3.1015537	18.7136	18.6099	6.964362	30.29193
608	7.03210	3.1012465	18.9604	18.8554	6.965660	30.29664
609	7.02191	3.1006383	19.2437	19.1371	6.967221	30.29890
610	7.01281	3.1004664	19.5180	19.4099	6.968435	30.30493
611	7.00439	3.1001286	19.7861	19.6764	6.969646	30.30856
612	6.99671	3.1000243	20.0574	19.9462	6.970653	30.31408
613	6.99083	3.0997295	20.3286	20.2159	6.971528	30.31594
614	6.98564	3.0998156	20.5814	20.4673	6.972133	30.32133
615	6.97863	3.0999633	20.8557	20.7401	6.972934	30.32898
616	6.97463	3.0994349	21.1177	21.0006	6.973692	30.32667
617	6.97338	3.0994412	21.3920	21.2734	6.973849	30.32771
618	6.97011	3.0991095	21.6540	21.5339	6.974421	30.32689
619	6.96492	3.0987901	21.9192	21.7976	6.975226	30.32789
620	6.95989	3.0984523	22.1843	22.0613	6.976020	30.32855
621	6.95605	3.0982866	22.4524	22.3279	6.976582	30.33002
622	6.95106	3.0982314	22.7328	22.6067	6.977232	30.33369
623	6.94406	3.0977647	22.9948	22.8672	6.978333	30.33469
624	6.93524	3.0979061	23.2508	23.1218	6.979361	30.34388
625	6.92429	3.0976729	23.5220	23.3914	6.980837	30.35089
626	6.91496	3.0979249	23.7841	23.6520	6.981875	30.36174
627	6.90428	3.0976732	24.0552	23.9217	6.983328	30.36832
628	6.88972	3.0975813	24.3265	24.1915	6.985184	30.38007
629	6.87107	3.0975202	24.5915	24.4550	6.987533	30.39577
630	6.84652	3.0976126	24.8535	24.7155	6.990538	30.41838
631	6.81481	3.0978158	25.1218	24.9823	6.994381	30.44857
632	6.77753	3.0981725	25.3930	25.2519	6.998842	30.48541
633	6.74369	3.0980255	25.6641	25.5215	7.003128	30.51377
634	6.71587	3.0980812	25.9262	25.7822	7.006568	30.53903
635	6.69230	3.0974057	26.1914	26.0458	7.009844	30.55255
636	6.67399	3.0974674	26.4472	26.3002	7.012099	30.56943
637	6.66178	3.0969639	26.7154	26.5669	7.013878	30.57472
638	6.65400	3.0964972	26.9714	26.8215	7.015086	30.57645
639	6.64550	3.0956744	27.2366	27.0852	7.016562	30.57494
640	6.63350	3.0949806	27.5077	27.3548	7.018411	30.57795
641	6.61445	3.0949993	27.7850	27.6305	7.020785	30.59505
642	6.59083	3.0946496	28.0562	27.9002	7.023916	30.61223
643	6.56331	3.0942385	28.3427	28.1851	7.027566	30.63224
644	6.53556	3.0946503	28.6077	28.4486	7.030835	30.66151
645	6.51137	3.0948226	28.8759	28.7153	7.033781	30.68499
646	6.49325	3.0951974	29.1410	28.9789	7.035866	30.70526
647	6.48093	3.0949151	29.4244	29.2606	7.037556	30.71311
648	6.46944	3.0949153	29.6987	29.5334	7.039001	30.72332
649	6.45816	3.0959104	29.9699	29.8031	7.039919	30.74428
650	6.44836	3.0965863	30.2440	30.0757	7.040811	30.76040
651	6.43862	3.0969058	30.5153	30.3454	7.041876	30.77257
652	6.42822	3.0970289	30.7834	30.6120	7.043124	30.78318
653	6.41705	3.0973854	31.0576	30.8846	7.044349	30.79706
654	6.40204	3.0970293	31.3289	31.1545	7.046416	30.80657
655	6.38187	3.0968515	31.6062	31.4301	7.049043	30.82272
656	6.35787	3.0971773	31.8713	31.6938	7.051895	30.84790
657	6.33761	3.0969688	32.1394	31.9604	7.054549	30.86382
658	6.32473	3.0969751	32.4107	32.2301	7.056170	30.87544
659	6.31369	3.0965023	32.6910	32.5088	7.057803	30.88010
660	6.30260	3.0965640	32.9592	32.7755	7.059171	30.89072
661	6.29233	3.0962693	33.2334	33.0482	7.060617	30.89666
662	6.28493	3.0963862	33.5077	33.3209	7.061495	30.90454
663	6.28043	3.0961652	33.7728	33.5845	7.062178	30.90606
664	6.27727	3.0962697	34.0348	33.8450	7.062529	30.90997
665	6.27395	3.0960917	34.3183	34.1269	7.063043	30.91089
666	6.27181	3.0962576	34.5864	34.3935	7.063234	30.91454
667	6.26971	3.0960919	34.8606	34.6662	7.063587	30.91449
668	6.26813	3.0961657	35.1257	34.9298	7.063755	30.91662
669	6.26558	3.0960061	35.3969	35.1994	7.064163	30.91705
670	6.26144	3.0957974	35.6773	35.4783	7.064795	30.91837
671	6.25471	3.0955151	35.9485	35.7479	7.065793	30.92125
672	6.24787	3.0955950	36.2105	36.0084	7.066618	30.92823
673	6.24231	3.0957426	36.4787	36.2751	7.067249	30.93479
674	6.23736	3.0954172	36.7407	36.5356	7.068043	30.93557
675	6.23297	3.0953006	37.0090	36.8023	7.068661	30.93815
676	6.22920	3.0952086	37.2741	37.0660	7.069189	30.94044
677	6.22588	3.0953254	37.5392	37.3296	7.069552	30.94463
678	6.22451	3.0954729	37.8135	37.6023	7.069657	30.94738
679	6.22318	3.0953318	38.0786	37.8659	7.069901	30.94691
680	6.22308	3.0957003	38.3466	38.1324	7.069732	30.95095
681	6.22420	3.0960935	38.6117	38.3960	7.069396	30.95415
682	6.22476	3.0957435	38.8952	38.6779	7.069510	30.94964
683	6.22456	3.0957006	39.1724	38.9536	7.069563	30.94922
684	6.22262	3.0956822	39.4407	39.2203	7.069822	30.95066
685	6.21905	3.0955779	39.7119	39.4900	7.070331	30.95263
686	6.21635	3.0954736	39.9831	39.7596	7.070730	30.95381
687	6.21329	3.0954738	40.2513	40.0263	7.071121	30.95647
688	6.21074	3.0954554	40.5226	40.2960	7.071458	30.95846
689	6.20855	3.0950379	40.7876	40.5595	7.071953	30.95572
690	6.20590	3.0947985	41.0375	40.8080	7.072415	30.95537
691	6.19968	3.0946451	41.3057	41.0747	7.073282	30.95921
692	6.19254	3.0938347	41.5587	41.3262	7.074602	30.95662
693	6.18556	3.0939515	41.8146	41.5806	7.075428	30.96416
694	6.17940	3.0937183	42.0644	41.8290	7.076330	30.96708
695	6.17522	3.0935097	42.3357	42.0988	7.076969	30.96845
696	6.17196	3.0935405	42.5948	42.3564	7.077370	30.97164
697	6.16992	3.0929389	42.8628	42.6229	7.077941	30.96671
698	6.16840	3.0929513	43.1128	42.8714	7.078133	30.96812
699	6.16473	3.0926628	43.3688	43.1260	7.078749	30.96815
700	6.15699	3.0925402	43.6217	43.3775	7.079794	30.97373
701	6.14727	3.0924544	43.8807	43.6350	7.081071	30.98153
702	6.13795	3.0921968	44.1398	43.8926	7.082385	30.98705
703	6.13022	3.0923627	44.3958	44.1472	7.083282	30.99583
704	6.12193	3.0914236	44.6547	44.4046	7.084817	30.99287
705	6.10173	3.0892879	44.9138	44.6622	7.088472	30.98750
706	6.07571	3.0885826	45.1697	44.9167	7.092134	31.00333
707	6.05331	3.0882270	45.4289	45.1744	7.095159	31.01974
708	6.03721	3.0881106	45.6910	45.4349	7.097264	31.03306
709	6.02863	3.0873806	45.9469	45.6894	7.098733	31.03268
710	6.02097	3.0868164	46.2059	45.9470	7.100001	31.03330
711	6.01224	3.0866202	46.4589	46.1984	7.101215	31.03899
712	6.00336	3.0864118	46.7118	46.4500	7.102454	31.04469
713	5.99474	3.0860132	46.9708	46.7074	7.103759	31.04804
714	5.98835	3.0857986	47.2208	46.9560	7.104687	31.05139
715	5.98353	3.0856822	47.4767	47.2105	7.105364	31.05439
716	5.97826	3.0853327	47.7297	47.4620	7.106219	31.05522
717	5.97369	3.0852408	47.9917	47.7226	7.106852	31.05825
718	5.97025	3.0852041	48.2386	47.9680	7.107314	31.06089
719	5.96746	3.0853882	48.4976	48.2255	7.107578	31.06538
720	5.96756	3.0857380	48.7597	48.4861	7.107390	31.06905
721	5.96908	3.0858239	49.0279	48.7528	7.107158	31.06849
722	5.97085	3.0862411	49.2961	49.0194	7.106723	31.07138
723	5.97334	3.0869099	49.5612	49.2830	7.106068	31.07642
724	5.97638	3.0880204	49.8080	49.5284	7.105112	31.08588
725	5.98327	3.0898430	50.0701	49.7890	7.103301	31.09972
726	5.98870	3.0901253	50.3139	50.0314	7.102472	31.09776
727	5.99108	3.0905182	50.5729	50.2889	7.101972	31.09983
728	5.99311	3.0908988	50.8320	50.5465	7.101524	31.10208
729	5.99438	3.0913347	51.0880	50.8011	7.101144	31.10565
730	5.99494	3.0915496	51.3471	51.0587	7.100968	31.10740
731	5.99595	3.0918996	51.5971	51.3073	7.100664	31.11025
732	5.99666	3.0920163	51.8439	51.5526	7.100519	31.11078
733	5.99671	3.0921944	52.1151	51.8223	7.100426	31.11259
734	5.99631	3.0922620	52.3741	52.0798	7.100448	31.11359
735	5.99687	3.0921331	52.6240	52.3283	7.100450	31.11153
736	5.99747	3.0921946	52.8953	52.5979	7.100347	31.11153
737	5.99646	3.0921701	53.1452	52.8465	7.100493	31.11207
738	5.99489	3.0923114	53.3950	53.0948	7.100625	31.11497
739	5.99377	3.0923115	53.6450	53.3434	7.100772	31.11588
740	5.99347	3.0922932	53.8949	53.5919	7.100825	31.11583
741	5.99448	3.0923424	54.1509	53.8463	7.100677	31.11533
742	5.99489	3.0925450	54.3947	54.0888	7.100526	31.11710
743	5.99301	3.0924837	54.6598	54.3523	7.100801	31.11801
744	5.99027	3.0923979	54.9066	54.5978	7.101198	31.11946
745	5.98469	3.0912807	55.1627	54.8523	7.102488	31.11203
746	5.97440	3.0896299	55.4126	55.1008	7.104653	31.10298
747	5.96193	3.0886727	55.6716	55.3583	7.106736	31.10366
748	5.95226	3.0886729	55.9246	55.6099	7.107970	31.11243
749	5.94552	3.0887590	56.1775	55.8613	7.108786	31.11947
750	5.94268	3.0887897	56.4305	56.1129	7.109136	31.12230
751	5.93989	3.0884585	56.6804	56.3613	7.109667	31.12105
752	5.93488	3.0879984	56.9273	56.6068	7.110548	31.12042
753	5.92966	3.0879985	57.1740	56.8521	7.111215	31.12510
754	5.92718	3.0884588	57.4149	57.0916	7.111297	31.13240
755	5.92652	3.0885878	57.6618	57.3370	7.111319	31.13433
756	5.92369	3.0879006	57.9148	57.5885	7.112042	31.12915
757	5.91614	3.0871522	58.1616	57.8340	7.113394	31.12763
758	5.90698	3.0866555	58.4114	58.0823	7.114822	31.13040
759	5.90000	3.0871894	58.6614	58.3308	7.115438	31.14267
760	5.89873	3.0889689	58.9204	58.5883	7.114680	31.16357
761	5.90005	3.0899938	59.1825	58.8489	7.113986	31.17367
762	5.90481	3.0915222	59.4386	59.1035	7.112594	31.18622
763	5.91179	3.0927255	59.6855	59.3490	7.111087	31.19309
764	5.91918	3.0933517	59.9445	59.6066	7.109830	31.19314
765	5.92521	3.0935175	60.1913	59.8519	7.108985	31.18931
766	5.93017	3.0936956	60.4412	60.1003	7.108268	31.18661
767	5.93250	3.0938798	60.6850	60.3428	7.107883	31.18640
768	5.93306	3.0938431	60.9380	60.5943	7.107836	31.18536
769	5.93275	3.0938984	61.1849	60.8397	7.107852	31.18614
770	5.93275	3.0938801	61.4409	61.0942	7.107867	31.18582
771	5.93240	3.0939293	61.6817	61.3337	7.107892	31.18658
772	5.93179	3.0938127	61.9377	61.5882	7.108035	31.18572
773	5.93042	3.0936347	62.1785	61.8276	7.108306	31.18488
774	5.92880	3.0935181	62.4315	62.0792	7.108577	31.18495
775	5.92718	3.0934568	62.6752	62.3214	7.108820	31.18565
776	5.92546	3.0935060	62.9221	62.5669	7.109018	31.18767
777	5.92394	3.0931684	63.1661	62.8094	7.109392	31.18519
778	5.92252	3.0930457	63.4097	63.0517	7.109641	31.18501
779	5.92136	3.0929905	63.6506	63.2912	7.109822	31.18536
780	5.91959	3.0930459	63.9005	63.5397	7.110024	31.18749
781	5.91746	3.0929170	64.1443	63.7820	7.110366	31.18790
782	5.91523	3.0928987	64.4003	64.0365	7.110664	31.18962
783	5.91371	3.0933409	64.6410	64.2758	7.110632	31.19584
784	5.91316	3.0936664	64.8879	64.5213	7.110540	31.19987
785	5.91301	3.0937217	65.1318	64.7638	7.110536	31.20051
786	5.91306	3.0937218	65.3666	64.9972	7.110534	31.20036
787	5.91341	3.0937587	65.6225	65.2516	7.110476	31.20032
788	5.91346	3.0937526	65.8633	65.4911	7.110478	31.20009
789	5.91377	3.0938816	66.1132	65.7395	7.110378	31.20113
790	5.91412	3.0939001	66.3661	65.9909	7.110329	31.20089
791	5.91432	3.0940169	66.6132	66.2366	7.110248	31.20189
792	5.91417	3.0940354	66.8600	66.4819	7.110263	31.20212
793	5.91321	3.0939863	67.1069	66.7274	7.110416	31.20235
794	5.91068	3.0935505	67.3507	66.9698	7.110969	31.19970
795	5.90668	3.0932006	67.5915	67.2092	7.111663	31.19937
796	5.90314	3.0931700	67.8444	67.4606	7.112134	31.20218
797	5.90015	3.0932254	68.0822	67.6970	7.112490	31.20544
798	5.89818	3.0932009	68.3290	67.9424	7.112759	31.20687
799	5.89681	3.0932563	68.5790	68.1909	7.112909	31.20863
800	5.89550	3.0933116	68.8168	68.4273	7.113052	31.21035
801	5.89408	3.0932626	69.0636	68.6727	7.113263	31.21100
802	5.89266	3.0930478	69.3227	68.9302	7.113560	31.20978
803	5.89003	3.0926734	69.6031	69.2090	7.114095	31.20790
804	5.88715	3.0927840	69.8621	69.4666	7.114410	31.21167
805	5.88426	3.0930481	70.0939	69.6969	7.114644	31.21717
806	5.88224	3.0929192	70.3438	69.9454	7.114973	31.21748
807	5.88158	3.0928763	70.5876	70.1878	7.115085	31.21750
808	5.88108	3.0927843	70.8375	70.4363	7.115202	31.21682
809	5.87754	3.0924590	71.0782	70.6755	7.115827	31.21634
810	5.87298	3.0923180	71.3253	70.9212	7.116484	31.21885
811	5.86990	3.0922874	71.5690	71.1635	7.116897	31.22124
812	5.86788	3.0921770	71.8191	71.4122	7.117217	31.22176
813	5.86601	3.0921402	72.0537	71.6454	7.117479	31.22297
814	5.86469	3.0921157	72.2884	71.8787	7.117664	31.22380
815	5.86388	3.0921711	72.5444	72.1332	7.117744	31.22504
816	5.86403	3.0921098	72.7853	72.3727	7.117762	31.22410
817	5.86484	3.0920239	73.0199	72.6059	7.117709	31.22228
818	5.86444	3.0919626	73.2731	72.8576	7.117798	31.22185
819	5.86272	3.0917908	73.5259	73.1089	7.118111	31.22140
820	5.85999	3.0915576	73.7729	73.3545	7.118585	31.22120
821	5.85716	3.0913490	74.0136	73.5938	7.119059	31.22137
822	5.85498	3.0912018	74.2605	73.8392	7.119418	31.22162
823	5.85180	3.0909379	74.4922	74.0696	7.119965	31.22150
824	5.84841	3.0907600	74.7452	74.3211	7.120494	31.22252
825	5.84543	3.0905085	74.9889	74.5634	7.121010	31.22235
826	5.84210	3.0903490	75.2389	74.8119	7.121523	31.22353
827	5.83891	3.0902325	75.4737	75.0453	7.121994	31.22506
828	5.83532	3.0899810	75.7176	75.2878	7.122587	31.22545
829	5.83184	3.0897969	75.9522	75.5210	7.123132	31.22650
830	5.82825	3.0895884	76.1990	75.7664	7.123702	31.22737
831	5.82492	3.0895148	76.4278	75.9938	7.124170	31.22952
832	5.82254	3.0895027	76.6624	76.2271	7.124484	31.23147
833	5.82052	3.0894414	76.8971	76.4604	7.124778	31.23254
834	5.81936	3.0894230	77.1317	76.6937	7.124941	31.23330
835	5.81835	3.0894415	77.3665	76.9270	7.125065	31.23433
836	5.81759	3.0893925	77.6043	77.1634	7.125193	31.23437
837	5.81689	3.0893558	77.8482	77.4059	7.125307	31.23449
838	5.81638	3.0892945	78.0889	77.6452	7.125409	31.23416
839	5.81588	3.0892700	78.3298	77.8847	7.125491	31.23424
840	5.81522	3.0892946	78.5674	78.1209	7.125567	31.23501
841	5.81487	3.0894420	78.8174	78.3694	7.125541	31.23687
842	5.81461	3.0894543	79.0431	78.5938	7.125571	31.23713
843	5.81552	3.0902093	79.2868	78.8361	7.125067	31.24462
844	5.81835	3.0905408	79.5399	79.0877	7.124540	31.24559
845	5.81941	3.0899148	79.8080	79.3543	7.124737	31.23749
846	5.81618	3.0892398	80.0885	79.6330	7.125507	31.23279
847	5.81173	3.0893627	80.3292	79.8724	7.126014	31.23816
848	5.80754	3.0893567	80.5549	80.0968	7.126556	31.24186
849	5.80461	3.0893568	80.8108	80.3511	7.126935	31.24445
850	5.80366	3.0893937	81.0425	80.5815	7.127043	31.24564
851	5.80290	3.0895042	81.2833	80.8209	7.127087	31.24747
852	5.80159	3.0894736	81.5333	81.0694	7.127276	31.24822
853	5.80093	3.0894860	81.7711	81.3058	7.127358	31.24885
854	5.80118	3.0894431	82.0149	81.5482	7.127354	31.24802
855	5.80063	3.0894248	82.2648	81.7966	7.127439	31.24821
856	5.79962	3.0894432	82.5117	82.0420	7.127564	31.24924
857	5.79840	3.0893881	82.7435	82.2725	7.127752	31.24963
858	5.79719	3.0893329	82.9843	82.5118	7.127941	31.25002
859	5.79654	3.0892103	83.2342	82.7602	7.128094	31.24914
860	5.79593	3.0892410	83.4750	82.9997	7.128160	31.24993
861	5.79487	3.0893025	83.7220	83.2452	7.128269	31.25148
862	5.79295	3.0893271	83.9536	83.4754	7.128505	31.25342
863	5.79179	3.0893027	84.2035	83.7238	7.128672	31.25411
864	5.79088	3.0893580	84.4504	83.9693	7.128764	31.25545
865	5.79008	3.0893888	84.6912	84.2086	7.128856	31.25643
866	5.78957	3.0893643	84.9319	84.4480	7.128939	31.25651
867	5.78902	3.0894196	85.1790	84.6936	7.128986	31.25752
868	5.78856	3.0894197	85.4199	84.9330	7.129049	31.25783
869	5.78826	3.0894259	85.6576	85.1693	7.129090	31.25807
870	5.78861	3.0894198	85.8953	85.4057	7.129053	31.25756
871	5.78902	3.0893953	86.1421	85.6510	7.129020	31.25679
872	5.78892	3.0893893	86.3862	85.8936	7.129041	31.25670
873	5.78861	3.0893893	86.6268	86.1328	7.129085	31.25687
874	5.78806	3.0894262	86.8737	86.3783	7.129142	31.25768
875	5.78846	3.0893281	87.1116	86.6147	7.129147	31.25610
876	5.78892	3.0892730	87.3585	86.8602	7.129123	31.25494
877	5.78881	3.0893037	87.6115	87.1117	7.129126	31.25526
878	5.78806	3.0893283	87.8460	87.3448	7.129215	31.25613
879	5.78725	3.0893591	88.0870	87.5844	7.129307	31.25710
880	5.78674	3.0893653	88.3277	87.8237	7.129373	31.25753
881	5.78634	3.0893593	88.5594	88.0540	7.129433	31.25772
882	5.78634	3.0893961	88.8095	88.3026	7.129419	31.25802
883	5.78649	3.0893901	89.0472	88.5389	7.129408	31.25770
884	5.78624	3.0893902	89.2941	88.7843	7.129446	31.25782
885	5.78579	3.0893964	89.5380	89.0268	7.129506	31.25819
886	5.78548	3.0892737	89.7756	89.2630	7.129614	31.25699
887	5.78523	3.0892124	90.0441	89.5299	7.129684	31.25641
888	5.78533	3.0891511	90.3396	89.8236	7.129710	31.25549
889	5.78568	3.0892126	90.6109	90.0933	7.129638	31.25572
890	5.78528	3.0893661	90.8456	90.3266	7.129615	31.25770
891	5.78432	3.0893600	91.0926	90.5722	7.129746	31.25840
892	5.78412	3.0893601	91.3426	90.8206	7.129777	31.25847
893	5.78457	3.0893356	91.5864	91.0630	7.129737	31.25766
894	5.78457	3.0893602	91.8454	91.3205	7.129730	31.25782
895	5.78432	3.0893296	92.0892	91.5629	7.129784	31.25759
896	5.78463	3.0893665	92.3423	91.8144	7.129731	31.25761
897	5.78463	3.0893298	92.5800	92.0507	7.129756	31.25708
898	5.78442	3.0893298	92.8360	92.3052	7.129787	31.25715
899	5.78417	3.0893667	93.0891	92.5569	7.129805	31.25768
900	5.78422	3.0893607	93.3361	92.8023	7.129808	31.25744
901	5.78432	3.0893362	93.5859	93.0507	7.129813	31.25696
902	5.78437	3.0893608	93.8330	93.2963	7.129799	31.25707
903	5.78407	3.0893609	94.0829	93.5447	7.129843	31.25723
904	5.78397	3.0893671	94.3297	93.7900	7.129858	31.25728
905	5.78402	3.0894224	94.5676	94.0265	7.129828	31.25774
906	5.78412	3.0894225	94.8358	94.2931	7.129821	31.25752
907	5.78442	3.0893673	95.0827	94.5386	7.129817	31.25651
908	5.78513	3.0893919	95.3296	94.7840	7.129720	31.25601
909	5.78538	3.0894288	95.5826	95.0355	7.129674	31.25607
910	5.78493	3.0894228	95.8204	95.2719	7.129740	31.25631
911	5.78452	3.0894229	96.0764	95.5264	7.129797	31.25656
912	5.78508	3.0894904	96.3204	95.7689	7.129696	31.25669
913	5.78584	3.0895089	96.5734	96.0204	7.129596	31.25608
914	5.78604	3.0895397	96.8233	96.2688	7.129560	31.25612
915	5.78553	3.0895520	97.0610	96.5051	7.129623	31.25661
916	5.78488	3.0895644	97.3172	96.7597	7.129705	31.25724
917	5.78422	3.0896258	97.5732	97.0143	7.129763	31.25841
918	5.78382	3.0896811	97.8201	97.2596	7.129791	31.25929
919	5.78362	3.0897119	98.0608	97.4990	7.129806	31.25970
920	5.78341	3.0897427	98.2986	97.7353	7.129820	31.26012
921	5.78326	3.0897427	98.5486	97.9838	7.129845	31.26014
922	5.78311	3.0897121	98.7956	98.2294	7.129886	31.25983
923	5.78296	3.0897122	99.0333	98.4656	7.129910	31.25985
924	5.78281	3.0897123	99.2954	98.7261	7.129936	31.25987
925	5.78251	3.0897124	99.5455	98.9748	7.129980	31.26003
926	5.78230	3.0897124	99.8046	99.2323	7.130011	31.26010
927	5.78180	3.0897125	100.0515	99.4777	7.130081	31.26045
928	5.78104	3.0897433	100.3107	99.7354	7.130167	31.26137
929	5.78018	3.0898047	100.5757	99.9988	7.130250	31.26273
930	5.77948	3.0898907	100.8197	100.2414	7.130300	31.26423
931	5.77892	3.0900504	101.0696	100.4898	7.130293	31.26641
932	5.77892	3.0903328	101.3224	100.7410	7.130151	31.26945
933	5.77953	3.0906520	101.5727	100.9899	7.129913	31.27235
934	5.78029	3.0909467	101.8225	101.2382	7.129668	31.27483
935	5.78074	3.0911248	102.0694	101.4836	7.129522	31.27628
936	5.78109	3.0912108	102.3193	101.7320	7.129438	31.27680
937	5.78160	3.0914134	102.5601	101.9713	7.129273	31.27849
938	5.78235	3.0915363	102.8101	102.2198	7.129118	31.27904
939	5.78266	3.0915977	103.0662	102.4744	7.129053	31.27933
940	5.78281	3.0916531	103.3253	102.7320	7.129010	31.27969
941	5.78316	3.0919171	103.5691	102.9743	7.128833	31.28220
942	5.78407	3.0921566	103.8281	103.2317	7.128597	31.28392
943	5.78483	3.0922671	104.0754	103.4775	7.128449	31.28434
944	5.78568	3.0922979	104.3252	103.7258	7.128329	31.28377
945	5.78609	3.0924085	104.5690	103.9682	7.128225	31.28452
946	5.78669	3.0925068	104.8250	104.2227	7.128102	31.28493
947	5.78725	3.0926235	105.0965	104.4925	7.127976	31.28560
948	5.78821	3.0928998	105.3372	104.7318	7.127715	31.28769
949	5.78957	3.0931516	105.5903	104.9833	7.127416	31.28912
950	5.79078	3.0933973	105.8370	105.2286	7.127139	31.29064
951	5.79250	3.0938272	106.0901	105.4802	7.126701	31.29374
952	5.79416	3.0939991	106.3340	105.7226	7.126405	31.29400
953	5.79548	3.0941404	106.5961	105.9832	7.126169	31.29424
954	5.79649	3.0942940	106.8523	106.2378	7.125966	31.29491
955	5.79765	3.0944415	107.1023	106.4863	7.125747	31.29536
956	5.79881	3.0946687	107.3521	106.7346	7.125486	31.29671
957	5.80022	3.0949144	107.5992	106.9802	7.125183	31.29803
958	5.80113	3.0950619	107.8461	107.2256	7.124996	31.29873
959	5.80148	3.0951971	108.1021	107.4801	7.124886	31.29979
960	5.80189	3.0953814	108.3551	107.7316	7.124744	31.30136
961	5.80244	3.0955596	108.6018	107.9768	7.124586	31.30272
962	5.80295	3.0956947	108.8550	108.2284	7.124457	31.30364
963	5.80350	3.0957685	109.1020	108.4740	7.124353	31.30384
964	5.80426	3.0957870	109.3335	108.7041	7.124252	31.30323
965	5.80487	3.0958853	109.5957	108.9647	7.124130	31.30365
966	5.80522	3.0959714	109.8457	109.2132	7.124045	31.30417
967	5.80568	3.0963154	110.0958	109.4618	7.123813	31.30748
968	5.80638	3.0963278	110.3395	109.7040	7.123722	31.30684
969	5.80694	3.0964445	110.6017	109.9646	7.123596	31.30751
970	5.80749	3.0964999	110.8912	110.2524	7.123503	31.30748
971	5.80785	3.0965000	111.1686	110.5281	7.123464	31.30702
972	5.80800	3.0965615	111.4185	110.7765	7.123419	31.30745
973	5.80790	3.0965923	111.6594	111.0159	7.123421	31.30778
974	5.80769	3.0966169	111.9124	111.2674	7.123439	31.30812
975	5.80790	3.0966784	112.1656	111.5191	7.123387	31.30850
976	5.80830	3.0967829	112.4154	111.7674	7.123286	31.30918
977	5.80845	3.0968260	112.6685	112.0189	7.123250	31.30940
978	5.80870	3.0968567	112.9092	112.2582	7.123207	31.30940
979	5.80896	3.0969060	113.1624	112.5098	7.123155	31.30959
980	5.80911	3.0968815	113.4213	112.7673	7.123154	31.30906
981	5.80926	3.0969368	113.6684	113.0128	7.123112	31.30942
982	5.80926	3.0969123	113.9153	113.2582	7.123130	31.30903
983	5.80926	3.0969431	114.1683	113.5097	7.123119	31.30925
984	5.80941	3.0969678	114.4213	113.7612	7.123093	31.30927
985	5.80961	3.0970293	114.6713	114.0097	7.123041	31.30965
986	5.80997	3.0970600	114.9243	114.2611	7.122985	31.30955
987	5.81002	3.0970294	115.1713	114.5067	7.123000	31.30904
988	5.81027	3.0971216	115.4394	114.7732	7.122926	31.30971
989	5.81108	3.0974411	115.6955	115.0277	7.122662	31.31242
990	5.81224	3.0975886	115.9486	115.2793	7.122443	31.31287
991	5.81320	3.0977361	116.2107	115.5398	7.122250	31.31351
992	5.81401	3.0978836	116.4636	115.7912	7.122076	31.31429
993	5.81497	3.0979943	116.7075	116.0336	7.121901	31.31452
994	5.81537	3.0980312	116.9605	116.2850	7.121836	31.31444
995	5.81572	3.0980313	117.2135	116.5365	7.121797	31.31400
996	5.81593	3.0980866	117.4634	116.7849	7.121748	31.31431
997	5.81658	3.0981789	117.7074	117.0274	7.121621	31.31462
998	5.81719	3.0982404	117.9818	117.3002	7.121518	31.31461
999	5.81749	3.0983326	118.2255	117.5424	7.121437	31.31525
1000	5.81800	3.0983880	118.4786	117.7939	7.121350	31.31528
1001	5.81840	3.0984126	118.7347	118.0484	7.121291	31.31506
1002	5.81870	3.0984004	118.9695	118.2819	7.121264	31.31453
1003	5.81860	3.0983882	119.2134	118.5242	7.121289	31.31438
1004	5.81860	3.0984620	119.4661	118.7755	7.121256	31.31508
1005	5.81921	3.0988860	119.7132	119.0210	7.120963	31.31914
1006	5.82042	3.0990642	119.9600	119.2664	7.120721	31.31990
1007	5.82123	3.0991134	120.2163	119.5211	7.120599	31.31958
1008	5.82209	3.0992425	120.4601	119.7634	7.120428	31.32011
1009	5.82280	3.0993286	120.7132	120.0149	7.120298	31.32030
1010	5.82320	3.0993594	120.9661	120.2663	7.120237	31.32015
1011	5.82365	3.0994148	121.2526	120.5510	7.120156	31.32021
1012	5.82391	3.0994456	121.5148	120.8117	7.120114	31.32020
1013	5.82391	3.0994825	121.7557	121.0511	7.120100	31.32050
1014	5.82355	3.0995625	121.9933	121.2873	7.120108	31.32161
1015	5.82350	3.0995626	122.2373	121.5298	7.120120	31.32154
1016	5.82376	3.0995811	122.4934	121.7844	7.120084	31.32139
1017	5.82391	3.0996241	122.7463	122.0357	7.120048	31.32161
1018	5.82391	3.0996549	122.9843	122.2722	7.120037	31.32185
1019	5.82416	3.0996427	123.2130	122.4995	7.120016	31.32137
1020	5.82391	3.0996797	123.4414	122.7266	7.120034	31.32191
1021	5.82335	3.0997105	123.6610	122.9448	7.120094	31.32266
1022	5.82295	3.0997351	123.8774	123.1599	7.120137	31.32321
1023	5.82285	3.0998273	124.0603	123.3417	7.120106	31.32425
1024	5.82259	3.1000363	124.1915	123.4721	7.120032	31.32676
1025	5.82269	3.1004173	124.2374	123.5177	7.119821	31.33090
1026	5.82315	3.1005648	124.2040	123.4845	7.119686	31.33214
1027	5.82502	3.1005955	124.1677	123.4485	7.119432	31.33077
1028	5.82704	3.1004480	124.2044	123.4849	7.119252	31.32723
1029	5.82780	3.1001530	124.3174	123.5972	7.119312	31.32318
1030	5.82805	3.1004788	124.4151	123.6943	7.119113	31.32654
1031	5.82855	3.1010073	124.4183	123.6975	7.118773	31.33198
1032	5.82941	3.1011240	124.3605	123.6400	7.118602	31.33252
1033	5.83204	3.1009212	124.3515	123.6311	7.118374	31.32782
1034	5.83361	3.1009150	124.3822	123.6616	7.118179	31.32629
1035	5.83346	3.1012162	124.3915	123.6709	7.118041	31.32979
1036	5.83330	3.1013821	124.3734	123.6529	7.117974	31.33179
1037	5.83320	3.1013883	124.3736	123.6531	7.117983	31.33195
1038	5.83376	3.1013329	124.3799	123.6594	7.117942	31.33082
1039	5.83401	3.1015050	124.3314	123.6111	7.117819	31.33253
1040	5.83548	3.1019229	124.1702	123.4509	7.117411	31.33592
1041	5.84002	3.1019474	123.9722	123.2541	7.116817	31.33207
1042	5.84452	3.1017875	123.7836	123.0666	7.116325	31.32621
1043	5.84654	3.1017997	123.5949	122.8791	7.116057	31.32456
1044	5.84740	3.1018611	123.4062	122.6915	7.115912	31.32454
1045	5.84750	3.1019102	123.2176	122.5041	7.115870	31.32508
1046	5.84720	3.1020085	123.0289	122.3165	7.115853	31.32655
1047	5.84690	3.1021252	122.8221	122.1110	7.115826	31.32824
1048	5.84730	3.1021927	122.5964	121.8867	7.115735	31.32872
1049	5.84781	3.1021865	122.3684	121.6601	7.115669	31.32829
1050	5.84750	3.1020697	122.1463	121.4394	7.115763	31.32737
1051	5.84619	3.1020020	121.9301	121.2244	7.115961	31.32794
1052	5.84503	3.1020696	121.7109	121.0066	7.116068	31.32987
1053	5.84412	3.1021248	121.4888	120.7858	7.116150	31.33143
1054	5.84371	3.1023460	121.2483	120.5468	7.116081	31.33439
1055	5.84457	3.1024505	121.0170	120.3169	7.115912	31.33487
1056	5.84412	3.1022722	120.7947	120.0960	7.116058	31.33341
1057	5.84336	3.1021553	120.5757	119.8782	7.116210	31.33291
1058	5.84215	3.1022413	120.3534	119.6574	7.116315	31.33510
1059	5.84149	3.1022720	120.1373	119.4425	7.116377	31.33615
1060	5.84199	3.1023764	119.9060	119.2127	7.116254	31.33696
1061	5.84270	3.1024501	119.6839	118.9919	7.116121	31.33723
1062	5.84321	3.1025053	119.4556	118.7650	7.116023	31.33749
1063	5.84381	3.1025913	119.2395	118.5502	7.115896	31.33799
1064	5.84427	3.1026281	119.0110	118.3231	7.115814	31.33809
1065	5.84457	3.1026834	118.7858	118.0993	7.115742	31.33853
1066	5.84503	3.1027509	118.5546	117.8694	7.115644	31.33897
1067	5.84533	3.1028308	118.3262	117.6424	7.115559	31.33969
1068	5.84558	3.1028307	118.0950	117.4126	7.115522	31.33957
1069	5.84568	3.1027815	117.8669	117.1859	7.115530	31.33903
1070	5.84553	3.1028306	117.6352	116.9556	7.115518	31.33983
1071	5.84553	3.1028612	117.4130	116.7348	7.115497	31.34028
1072	5.84563	3.1027813	117.1879	116.5110	7.115521	31.33939
1073	5.84568	3.1025660	116.9594	116.2840	7.115622	31.33705
1074	5.84634	3.1025352	116.7312	116.0571	7.115550	31.33620
1075	5.84856	3.1025597	116.5089	115.8362	7.115250	31.33452
1076	5.85185	3.1026518	116.2807	115.6093	7.114780	31.33262
1077	5.85519	3.1027132	116.0646	115.3946	7.114319	31.33031
1078	5.85822	3.1028115	115.8331	115.1645	7.113878	31.32871
1079	5.86049	3.1028298	115.6141	114.9468	7.113575	31.32691
1080	5.86206	3.1028912	115.3827	114.7167	7.113339	31.32626
1081	5.86338	3.1029342	115.1636	114.4989	7.113145	31.32562
1082	5.86464	3.1030078	114.9351	114.2719	7.112942	31.32538
1083	5.86565	3.1030385	114.7070	114.0452	7.112792	31.32490
1084	5.86651	3.1030569	114.4786	113.8181	7.112669	31.32441
1085	5.86727	3.1030691	114.2412	113.5822	7.112561	31.32396
1086	5.86813	3.1030936	114.0098	113.3522	7.112434	31.32355
1087	5.86894	3.1031181	113.7815	113.1253	7.112314	31.32318
1088	5.86980	3.1031242	113.5530	112.8981	7.112196	31.32256
1089	5.87030	3.1031241	113.3218	112.6683	7.112127	31.32220
1090	5.87106	3.1030871	113.0935	112.4414	7.112045	31.32119
1091	5.87182	3.1031239	112.8593	112.2086	7.111925	31.32101
1092	5.87253	3.1031546	112.6308	111.9815	7.111814	31.32080
1093	5.87329	3.1031176	112.3995	111.7515	7.111732	31.31980
1094	5.87400	3.1031237	112.1712	111.5246	7.111634	31.31932
1095	5.87465	3.1031851	111.9398	111.2947	7.111513	31.31950
1096	5.87546	3.1032158	111.7054	111.0616	7.111390	31.31921
1097	5.87642	3.1032403	111.4802	110.8378	7.111250	31.31870
1098	5.87728	3.1032402	111.2458	110.6048	7.111136	31.31801
1099	5.87809	3.1031787	111.0022	110.3627	7.111060	31.31669
1100	5.87865	3.1032708	110.7709	110.1328	7.110937	31.31731
1101	5.87961	3.1034797	110.5394	109.9027	7.110701	31.31887
1102	5.87971	3.1034920	110.3112	109.6759	7.110677	31.31902
1103	5.87936	3.1035042	110.0768	109.4429	7.110710	31.31959
1104	5.87921	3.1035349	109.8515	109.2190	7.110709	31.32018
1105	5.87698	3.1035225	109.6201	108.9890	7.110992	31.32221
1106	5.87243	3.1035348	109.3827	108.7529	7.111558	31.32667
1107	5.86858	3.1034487	109.1544	108.5260	7.112085	31.32938
1108	5.86434	3.1033687	108.9291	108.3021	7.112661	31.33253
1109	5.85928	3.1032396	108.6948	108.0692	7.113364	31.33588
1110	5.85443	3.1030921	108.4570	107.8329	7.114051	31.33884
1111	5.85013	3.1028400	108.2319	107.6091	7.114723	31.34011
1112	5.84619	3.1025941	107.9913	107.3700	7.115346	31.34113
1113	5.84295	3.1024158	107.7599	107.1399	7.115844	31.34224
1114	5.84109	3.1022191	107.5103	106.8919	7.116179	31.34190
1115	5.83947	3.1020653	107.2789	106.6619	7.116459	31.34179
1116	5.83775	3.1021821	107.0323	106.4167	7.116611	31.34480
1117	5.83694	3.1020591	106.7889	106.1747	7.116772	31.34429
1118	5.83659	3.1018254	106.5424	105.9297	7.116933	31.34212
1119	5.83512	3.1014443	106.2987	105.6875	7.117313	31.33933
1120	5.83305	3.1013459	106.0520	105.4423	7.117621	31.34027
1121	5.83204	3.1012352	105.8084	105.2002	7.117802	31.34009
1122	5.83174	3.1010877	105.5680	104.9612	7.117912	31.33883
1123	5.83098	3.1008479	105.3121	104.7069	7.118128	31.33697
1124	5.82951	3.1005898	105.0749	104.4710	7.118443	31.33556
1125	5.82795	3.1004115	104.8312	104.2288	7.118730	31.33513
1126	5.82674	3.1003500	104.5786	103.9777	7.118910	31.33569
1127	5.82623	3.1003253	104.3410	103.7416	7.118982	31.33599
1128	5.82552	3.1002577	104.0975	103.4996	7.119102	31.33600
1129	5.82482	3.1003805	103.8478	103.2513	7.119122	31.33815
1130	5.82456	3.1002084	103.6073	103.0122	7.119239	31.33658
1131	5.82466	3.1001346	103.3638	102.7702	7.119259	31.33577
1132	5.82396	3.0999686	103.1233	102.5311	7.119430	31.33468
1133	5.82290	3.0999132	102.8767	102.2860	7.119588	31.33517
1134	5.82189	3.0999131	102.6240	102.0348	7.119711	31.33622
1135	5.82143	3.0997963	102.3774	101.7897	7.119824	31.33545
1136	5.82072	3.0996181	102.1399	101.5537	7.120002	31.33423
1137	5.81961	3.0993538	101.8873	101.3025	7.120275	31.33242
1138	5.81810	3.0989974	101.6374	101.0541	7.120648	31.32996
1139	5.81608	3.0986471	101.3939	100.8121	7.121082	31.32803
1140	5.81426	3.0982354	101.1474	100.5670	7.121523	31.32522
1141	5.81249	3.0977930	100.8976	100.3188	7.121973	31.32203
1142	5.81123	3.0974674	100.6451	100.0678	7.122298	31.31968
1143	5.80977	3.0971786	100.3921	99.8163	7.122629	31.31793
1144	5.80775	3.0965581	100.1516	99.5772	7.123204	31.31297
1145	5.80542	3.0962018	99.9019	99.3291	7.123680	31.31126
1146	5.80345	3.0959684	99.6494	99.0780	7.124047	31.31059
1147	5.80179	3.0954954	99.4118	98.8419	7.124500	31.30695
1148	5.80007	3.0952067	99.1653	98.5969	7.124864	31.30543
1149	5.79881	3.0951330	98.9217	98.3547	7.125058	31.30589
1150	5.79805	3.0949671	98.6719	98.1064	7.125235	31.30485
1151	5.79674	3.0946968	98.4282	97.8641	7.125538	31.30316
1152	5.79543	3.0943836	98.1819	97.6193	7.125863	31.30099
1153	5.79416	3.0941440	97.9350	97.3739	7.126144	31.29959
1154	5.79310	3.0939843	97.6916	97.1319	7.126357	31.29890
1155	5.79204	3.0938246	97.4450	96.8867	7.126570	31.29821
1156	5.79149	3.0937631	97.2014	96.6446	7.126667	31.29816
1157	5.79103	3.0934868	96.9546	96.3994	7.126864	31.29560
1158	5.79053	3.0933823	96.7081	96.1543	7.126977	31.29502
1159	5.79033	3.0933208	96.4586	95.9063	7.127029	31.29463
1160	5.79023	3.0931795	96.2118	95.6610	7.127111	31.29326
1161	5.78997	3.0930567	95.9742	95.4247	7.127202	31.29223
1162	5.78992	3.0930321	95.7216	95.1737	7.127215	31.29212
1163	5.79008	3.0930258	95.4780	94.9315	7.127194	31.29203
1164	5.78997	3.0928539	95.2343	94.6893	7.127291	31.29031
1165	5.78997	3.0928661	94.9786	94.4351	7.127279	31.29057
1166	5.79003	3.0927678	94.7320	94.1900	7.127319	31.28954
1167	5.79053	3.0928229	94.4854	93.9449	7.127220	31.28981
1168	5.79068	3.0927737	94.2388	93.6997	7.127221	31.28923
1169	5.79063	3.0927061	93.9921	93.4544	7.127258	31.28864
1170	5.79058	3.0923561	93.7484	93.2122	7.127441	31.28488
1171	5.79013	3.0919693	93.4928	92.9581	7.127696	31.28110
1172	5.78977	3.0919140	93.2431	92.7099	7.127764	31.28092
1173	5.78997	3.0919691	93.0027	92.4709	7.127704	31.28147
1174	5.79008	3.0919384	92.7558	92.2255	7.127702	31.28115
1175	5.79018	3.0919444	92.5153	91.9865	7.127681	31.28123
1176	5.79063	3.0919382	92.2597	91.7324	7.127620	31.28086
1177	5.79083	3.0919995	92.0101	91.4842	7.127557	31.28148
1178	5.79088	3.0919442	91.7603	91.2359	7.127574	31.28093
1179	5.79093	3.0918766	91.5226	90.9997	7.127598	31.28024
1180	5.79073	3.0917047	91.2669	90.7455	7.127708	31.27863
1181	5.79048	3.0916186	91.0234	90.5034	7.127779	31.27801
1182	5.79038	3.0914406	90.7765	90.2580	7.127880	31.27623
1183	5.78997	3.0913545	90.5300	90.0129	7.127971	31.27576
1184	5.78982	3.0925577	90.2621	89.7466	7.127356	31.28949
1185	5.79038	3.0929260	89.9943	89.4804	7.127087	31.29322
1186	5.79078	3.0924716	89.7505	89.2381	7.127267	31.28788
1187	5.79058	3.0926496	89.5069	88.9958	7.127195	31.29017
1188	5.79068	3.0929687	89.2572	88.7477	7.127009	31.29377
1189	5.79144	3.0927906	89.0136	88.5055	7.127001	31.29119
1190	5.79204	3.0924958	88.7670	88.2604	7.127072	31.28745
1191	5.79209	3.0922625	88.5171	88.0120	7.127182	31.28491
1192	5.79194	3.0919432	88.2705	87.7669	7.127363	31.28159
1193	5.79154	3.0916546	88.0210	87.5188	7.127559	31.27885
1194	5.79093	3.0915870	87.7774	87.2766	7.127666	31.27877
1195	5.79078	3.0916483	87.5307	87.0314	7.127648	31.27972
1196	5.79139	3.0917833	87.2780	86.7802	7.127495	31.28078
1197	5.79220	3.0916174	87.0282	86.5319	7.127473	31.27830
1198	5.79285	3.0915621	86.7908	86.2959	7.127413	31.27718
1199	5.79255	3.0914393	86.5382	86.0447	7.127511	31.27621
1200	5.79220	3.0913840	86.2884	85.7964	7.127579	31.27604
1201	5.79169	3.0913471	86.0478	85.5573	7.127657	31.27620
1202	5.79159	3.0915005	85.7921	85.3031	7.127584	31.27814
1203	5.79184	3.0919669	85.5513	85.0637	7.127303	31.28324
1204	5.79285	3.0922738	85.3018	84.8156	7.127009	31.28585
1205	5.79366	3.0924702	85.0550	84.5703	7.126798	31.28742
1206	5.79366	3.0928200	84.8053	84.3221	7.126610	31.29145
1207	5.79406	3.0933910	84.5526	84.0709	7.126254	31.29759
1208	5.79608	3.0936426	84.3059	83.8256	7.125861	31.29865
1209	5.79896	3.0936425	84.0624	83.5835	7.125489	31.29610
1210	5.80133	3.0936424	83.8218	83.3444	7.125182	31.29401
1211	5.80315	3.0937590	83.5751	83.0991	7.124884	31.29375
1212	5.80461	3.0937036	83.3225	82.8481	7.124721	31.29189
1213	5.80573	3.0937895	83.0727	82.5997	7.124529	31.29194
1214	5.80638	3.0937035	82.8291	82.3575	7.124485	31.29049
1215	5.80694	3.0936727	82.5884	82.1182	7.124425	31.28974
1216	5.80719	3.0933165	82.3297	81.8611	7.124573	31.28565
1217	5.80689	3.0927884	82.0860	81.6188	7.124882	31.28014
1218	5.80552	3.0924016	81.8334	81.3677	7.125252	31.27719
1219	5.80406	3.0921130	81.5958	81.1315	7.125584	31.27543
1220	5.80199	3.0919103	81.3461	80.8832	7.125948	31.27520
1221	5.79997	3.0918121	81.0903	80.6289	7.126251	31.27609
1222	5.79856	3.0916769	80.8345	80.3746	7.126495	31.27601
1223	5.79734	3.0915602	80.5969	80.1385	7.126705	31.27593
1224	5.79639	3.0915295	80.3440	79.8871	7.126838	31.27660
1225	5.79583	3.0918793	80.0792	79.6238	7.126720	31.28115
1226	5.79598	3.0921494	79.8113	79.3575	7.126554	31.28416
1227	5.79669	3.0912653	79.5615	79.1092	7.126920	31.27373
1228	5.79578	3.0909706	79.3180	78.8671	7.127184	31.27139
1229	5.79522	3.0909398	79.0682	78.6188	7.127266	31.27168
1230	5.79568	3.0908231	78.8214	78.3734	7.127263	31.27007
1231	5.79553	3.0907064	78.5809	78.1343	7.127338	31.26902
1232	5.79522	3.0905100	78.3283	77.8832	7.127474	31.26722
1233	5.79487	3.0901785	78.0754	77.6318	7.127687	31.26395
1234	5.79427	3.0899820	77.8318	77.3896	7.127861	31.26243
1235	5.79406	3.0898223	77.5821	77.1414	7.127965	31.26095
1236	5.79427	3.0898223	77.3323	76.8931	7.127933	31.26088
1237	5.79462	3.0897976	77.0826	76.6448	7.127896	31.26040
1238	5.79528	3.0897362	76.8361	76.3997	7.127839	31.25922
1239	5.79548	3.0896502	76.5861	76.1513	7.127852	31.25819
1240	5.79538	3.0896072	76.3395	75.9061	7.127882	31.25791
1241	5.79548	3.0894721	76.1020	75.6700	7.127935	31.25642
1242	5.79583	3.0892388	75.8493	75.4188	7.128006	31.25360
1243	5.79689	3.0889441	75.6025	75.1734	7.128019	31.24944
1244	5.79810	3.0888582	75.3558	74.9282	7.127905	31.24748
1245	5.79926	3.0887415	75.1092	74.6830	7.127812	31.24521
1246	5.80037	3.0886248	74.8625	74.4377	7.127726	31.24300
1247	5.80108	3.0886493	74.6129	74.1896	7.127618	31.24274
1248	5.80204	3.0886185	74.3632	73.9414	7.127506	31.24162
1249	5.80295	3.0885325	74.1133	73.6929	7.127430	31.23994
1250	5.80381	3.0884772	73.8636	73.4447	7.127344	31.23864
1251	5.80431	3.0883421	73.6201	73.2026	7.127345	31.23678
1252	5.80477	3.0882991	73.3796	72.9635	7.127304	31.23599
1253	5.80557	3.0883113	73.1328	72.7182	7.127189	31.23550
1254	5.80638	3.0883603	72.8800	72.4668	7.127055	31.23542
1255	5.80724	3.0883295	72.6271	72.2154	7.126956	31.23440
1256	5.80800	3.0883417	72.3837	71.9734	7.126848	31.23395
1257	5.80855	3.0884153	72.1337	71.7249	7.126733	31.23438
1258	5.80906	3.0883845	71.8872	71.4798	7.126680	31.23368
1259	5.80987	3.0883415	71.6375	71.2316	7.126594	31.23257
1260	5.81047	3.0882984	71.3907	70.9863	7.126533	31.23165
1261	5.81098	3.0883413	71.1350	70.7320	7.126441	31.23178
1262	5.81148	3.0885008	70.8913	70.4897	7.126288	31.23321
1263	5.81199	3.0886787	70.6446	70.2445	7.126126	31.23485
1264	5.81239	3.0885865	70.3948	69.9961	7.126117	31.23357
1265	5.81274	3.0883594	70.1481	69.7508	7.126185	31.23082
1266	5.81305	3.0882366	69.9015	69.5057	7.126205	31.22928
1267	5.81325	3.0881813	69.6306	69.2364	7.126202	31.22860
1268	5.81406	3.0879481	69.3838	68.9910	7.126215	31.22536
1269	5.81593	3.0877823	69.1341	68.7428	7.126058	31.22190
1270	5.81901	3.0878006	68.8782	68.4884	7.125651	31.21938
1271	5.82184	3.0879171	68.6282	68.2399	7.125224	31.21819
1272	5.82547	3.0878127	68.3910	68.0040	7.124810	31.21377
1273	5.82901	3.0880335	68.1442	67.7587	7.124239	31.21309
1274	5.83199	3.0882358	67.8944	67.5103	7.123749	31.21272
1275	5.83573	3.0884321	67.6417	67.2590	7.123165	31.21158
1276	5.84002	3.0886774	67.3980	67.0168	7.122485	31.21047
1277	5.84402	3.0888921	67.1574	66.7776	7.121860	31.20929
1278	5.84791	3.0890024	66.8925	66.5142	7.121301	31.20706
1279	5.85104	3.0891742	66.6488	66.2720	7.120808	31.20620
1280	5.85412	3.0892354	66.3960	66.0206	7.120378	31.20416
1281	5.85691	3.0892353	66.1555	65.7815	7.120019	31.20170
1282	5.85888	3.0893518	65.8996	65.5271	7.119702	31.20130
1283	5.86080	3.0893272	65.6500	65.2789	7.119465	31.19937
1284	5.86282	3.0892903	65.4030	65.0334	7.119221	31.19721
1285	5.86489	3.0893884	65.1565	64.7883	7.118901	31.19651
1286	5.86651	3.0894681	64.9097	64.5430	7.118648	31.19602
1287	5.86843	3.0894373	64.6599	64.2946	7.118415	31.19403
1288	5.87061	3.0894495	64.4163	64.0524	7.118126	31.19227
1289	5.87238	3.0894678	64.1603	63.7979	7.117886	31.19096
1290	5.87405	3.0894370	63.9107	63.5498	7.117684	31.18920
1291	5.87587	3.0895412	63.6642	63.3047	7.117393	31.18880
1292	5.87754	3.0895534	63.4113	63.0532	7.117169	31.18752
1293	5.87895	3.0895840	63.1645	62.8079	7.116968	31.18667
1294	5.88067	3.0896330	62.9118	62.5566	7.116718	31.18575
1295	5.88249	3.0896759	62.6682	62.3145	7.116459	31.18466
1296	5.88447	3.0897003	62.4213	62.0690	7.116190	31.18323
1297	5.88614	3.0896757	62.1686	61.8178	7.115985	31.18154
1298	5.88745	3.0897309	61.9189	61.5695	7.115784	31.18106
1299	5.88877	3.0897921	61.6720	61.3240	7.115579	31.18065
1300	5.88973	3.0897307	61.4254	61.0789	7.115484	31.17919
1301	5.89049	3.0896447	61.1695	60.8245	7.115426	31.17765
1302	5.89109	3.0896016	60.9199	60.5763	7.115366	31.17673
1303	5.89170	3.0894665	60.6702	60.3280	7.115354	31.17478
1304	5.89226	3.0893867	60.4295	60.0888	7.115319	31.17349
1305	5.89286	3.0892884	60.1766	59.8373	7.115287	31.17195
1306	5.89347	3.0891717	59.9269	59.5890	7.115265	31.17021
1307	5.89398	3.0892023	59.6742	59.3377	7.115180	31.17020
1308	5.89438	3.0891716	59.4182	59.0833	7.115139	31.16961
1309	5.89509	3.0891470	59.1686	58.8351	7.115056	31.16880
1310	5.89615	3.0891714	58.9218	58.5898	7.114903	31.16821
1311	5.89752	3.0891713	58.6660	58.3354	7.114724	31.16707
1312	5.89899	3.0892326	58.4192	58.0901	7.114500	31.16651
1313	5.90030	3.0892018	58.1665	57.8388	7.114343	31.16508
1314	5.90157	3.0891711	57.9227	57.5964	7.114193	31.16368
1315	5.90298	3.0892017	57.6699	57.3450	7.113991	31.16284
1316	5.90450	3.0892323	57.4234	57.1000	7.113777	31.16190
1317	5.90572	3.0892629	57.1765	56.8545	7.113602	31.16124
1318	5.90668	3.0892628	56.9239	56.6034	7.113474	31.16047
1319	5.90713	3.0892320	56.6770	56.3579	7.113427	31.15982
1320	5.90744	3.0891460	56.4272	56.1096	7.113427	31.15870
1321	5.90734	3.0890784	56.1776	55.8613	7.113470	31.15816
1322	5.90703	3.0890231	55.9308	55.6160	7.113532	31.15794
1323	5.90668	3.0889494	55.6839	55.3705	7.113609	31.15756
1324	5.90622	3.0888205	55.4252	55.1133	7.113729	31.15666
1325	5.90516	3.0886732	55.1844	54.8739	7.113935	31.15611
1326	5.90410	3.0885197	54.9316	54.6225	7.114144	31.15549
1327	5.90304	3.0883539	54.6818	54.3742	7.114360	31.15474
1328	5.90177	3.0880594	54.4321	54.1260	7.114668	31.15274
1329	5.90035	3.0877157	54.1856	53.8808	7.115021	31.15032
1330	5.89939	3.0872677	53.9357	53.6324	7.115371	31.14633
1331	5.89878	3.0869425	53.6798	53.3780	7.115611	31.14338
1332	5.89858	3.0866234	53.4332	53.1328	7.115797	31.14012
1333	5.89843	3.0863595	53.1833	52.8843	7.115948	31.13744
1334	5.89838	3.0862000	52.9336	52.6360	7.116032	31.13582
1335	5.89828	3.0860649	52.6806	52.3846	7.116110	31.13452
1336	5.89818	3.0859176	52.4309	52.1362	7.116194	31.13309
1337	5.89808	3.0857642	52.1812	51.8879	7.116281	31.13159
1338	5.89853	3.0855065	51.9344	51.6426	7.116351	31.12841
1339	5.89899	3.0852058	51.6846	51.3942	7.116444	31.12476
1340	5.90010	3.0849543	51.4348	51.1459	7.116428	31.12104
1341	5.90223	3.0847763	51.1820	50.8945	7.116244	31.11722
1342	5.90536	3.0846535	50.9385	50.6524	7.115904	31.11308
1343	5.90840	3.0846289	50.6886	50.4040	7.115525	31.11013
1344	5.91073	3.0849539	50.4419	50.1587	7.115055	31.11173
1345	5.91139	3.0850826	50.1890	49.9073	7.114899	31.11268
1346	5.91098	3.0851255	49.9423	49.6620	7.114922	31.11365
1347	5.91073	3.0853033	49.6865	49.4076	7.114857	31.11598
1348	5.91063	3.0853891	49.4396	49.1622	7.114820	31.11715
1349	5.91068	3.0853583	49.1930	48.9169	7.114824	31.11687
1350	5.91063	3.0853644	48.9371	48.6625	7.114821	31.11711
1351	5.91053	3.0853030	48.6844	48.4112	7.114861	31.11664
1352	5.91017	3.0853029	48.4345	48.1627	7.114900	31.11708
1353	5.90992	3.0852722	48.1909	47.9205	7.114943	31.11708
1354	5.90956	3.0852414	47.9409	47.6720	7.114999	31.11718
1355	5.90921	3.0851739	47.6911	47.4236	7.115073	31.11687
1356	5.90860	3.0851861	47.4476	47.1815	7.115139	31.11768
1357	5.90784	3.0853332	47.1977	46.9330	7.115153	31.12014
1358	5.90708	3.0858239	46.9449	46.6817	7.114990	31.12643
1359	5.90607	3.0865907	46.7072	46.4454	7.114715	31.13603
1360	5.90460	3.0871550	46.4544	46.1940	7.114603	31.14380
1361	5.90253	3.0878237	46.2016	45.9427	7.114514	31.15329
1362	5.89914	3.0881121	45.9641	45.7065	7.114789	31.15974
1363	5.89529	3.0882348	45.7112	45.4550	7.115209	31.16477
1364	5.89140	3.0882041	45.4675	45.2128	7.115715	31.16813
1365	5.88755	3.0882040	45.2178	44.9644	7.116198	31.17180
1366	5.88436	3.0882347	44.9740	44.7221	7.116582	31.17519
1367	5.88153	3.0881733	44.7182	44.4677	7.116968	31.17724
1368	5.87936	3.0882039	44.4715	44.2224	7.117223	31.17970
1369	5.87774	3.0883634	44.2217	43.9741	7.117341	31.18309
1370	5.87673	3.0884063	43.9810	43.7347	7.117442	31.18462
1371	5.87597	3.0884246	43.7404	43.4955	7.117523	31.18564
1372	5.87572	3.0884061	43.4966	43.2531	7.117560	31.18578
1373	5.87602	3.0884061	43.2376	42.9956	7.117516	31.18562
1374	5.87582	3.0884244	43.0001	42.7595	7.117527	31.18612
1375	5.87592	3.0884673	42.7473	42.5080	7.117486	31.18663
1376	5.87556	3.0884058	42.4976	42.2598	7.117557	31.18639
1377	5.87551	3.0882708	42.2508	42.0144	7.117629	31.18504
1378	5.87587	3.0882277	42.0072	41.7722	7.117601	31.18435
1379	5.87556	3.0877123	41.7572	41.5236	7.117902	31.17899
1380	5.87592	3.0875588	41.5075	41.2753	7.117931	31.17707
1381	5.88487	3.0874359	41.2638	41.0330	7.116851	31.16756
1382	5.89980	3.0873069	41.0108	40.7814	7.115015	31.15248
1383	5.91331	3.0871471	40.7582	40.5303	7.113375	31.13838
1384	5.92571	3.0867359	40.5115	40.2849	7.112007	31.12249
1385	5.93620	3.0864106	40.2645	40.0394	7.110839	31.10934
1386	5.94891	3.0861772	40.0118	39.7881	7.109340	31.09518
1387	5.96153	3.0857599	39.7681	39.5458	7.107948	31.07906
1388	5.97466	3.0854775	39.5183	39.2974	7.106422	31.06398
1389	5.98804	3.0852136	39.2593	39.0399	7.104854	31.04889
1390	6.00097	3.0855752	38.9911	38.7733	7.103021	31.04119
1391	6.00889	3.0846550	38.7383	38.5219	7.102486	31.02382
1392	6.02066	3.0840293	38.4826	38.2676	7.101311	31.00621
1393	6.03569	3.0840965	38.2388	38.0253	7.099365	30.99333
1394	6.05173	3.0838632	37.9890	37.7768	7.097446	30.97619
1395	6.06570	3.0835012	37.7299	37.5192	7.095856	30.95953
1396	6.07429	3.0833661	37.4833	37.2740	7.094832	30.95031
1397	6.08359	3.0832188	37.2335	37.0257	7.093724	30.94031
1398	6.09426	3.0833167	36.9897	36.7832	7.092316	30.93177
1399	6.10565	3.0831325	36.7490	36.5439	7.090963	30.91946
1400	6.11440	3.0833470	36.4964	36.2926	7.089740	30.91399
1401	6.12152	3.0834511	36.2434	36.0411	7.088780	30.90878
1402	6.12773	3.0834510	35.9937	35.7928	7.087989	30.90324
1403	6.13322	3.0833159	35.7500	35.5505	7.087357	30.89686
1404	6.13780	3.0835366	35.4971	35.2990	7.086659	30.89525
1405	6.14182	3.0833954	35.2473	35.0507	7.086217	30.89014
1406	6.14523	3.0834076	35.0004	34.8051	7.085774	30.88729
1407	6.14885	3.0830702	34.7538	34.5599	7.085485	30.88038
1408	6.15124	3.0828248	34.5009	34.3085	7.085303	30.87561
1409	6.15409	3.0831007	34.2540	34.0630	7.084795	30.87619
1410	6.15740	3.0830147	34.0014	33.8118	7.084415	30.87234
1411	6.16086	3.0833764	33.7546	33.5664	7.083787	30.87331
1412	6.16555	3.0832782	33.4986	33.3119	7.083239	30.86809
1413	6.16977	3.0836276	33.2459	33.0606	7.082520	30.86823
1414	6.17405	3.0835110	32.9991	32.8152	7.082034	30.86317
1415	6.17818	3.0834802	32.7522	32.5697	7.081523	30.85920
1416	6.18215	3.0835598	32.5085	32.3274	7.080975	30.85658
1417	6.18648	3.0834800	32.2588	32.0791	7.080463	30.85188
1418	6.19086	3.0833327	32.0028	31.8245	7.079979	30.84639
1419	6.19514	3.0832528	31.7560	31.5791	7.079473	30.84174
1420	6.19871	3.0833018	31.5064	31.3310	7.078992	30.83916
1421	6.20207	3.0832833	31.2596	31.0855	7.078571	30.83602
1422	6.20503	3.0829520	31.0097	30.8370	7.078362	30.82979
1423	6.20799	3.0828354	30.7662	30.5949	7.078043	30.82593
1424	6.21069	3.0829457	30.5162	30.3463	7.077640	30.82482
1425	6.21308	3.0827739	30.2573	30.0889	7.077419	30.82086
1426	6.21869	3.0826327	30.0104	29.8433	7.076778	30.81433
1427	6.22777	3.0827491	29.7576	29.5920	7.075566	30.80751
1428	6.23710	3.0825404	29.5109	29.3467	7.074489	30.79687
1429	6.24710	3.0823256	29.2609	29.0981	7.073331	30.78556
1430	6.25614	3.0821906	29.0112	28.8498	7.072254	30.77601
1431	6.26435	3.0822947	28.7614	28.6014	7.071159	30.76984
1432	6.27283	3.0821289	28.4994	28.3409	7.070168	30.76047
1433	6.28018	3.0818100	28.2251	28.0682	7.069397	30.75043
1434	6.28610	3.0819570	27.9753	27.8198	7.068570	30.74682
1435	6.29611	3.0814602	27.7225	27.5684	7.067554	30.73241
1436	6.30490	3.0811657	27.4696	27.3168	7.066590	30.72135
1437	6.31926	3.0807486	27.2169	27.0656	7.064986	30.70392
1438	6.33163	3.0803745	26.9730	26.8230	7.063612	30.68876
1439	6.34360	3.0800065	26.7142	26.5657	7.062285	30.67405
1440	6.35679	3.0797917	26.4610	26.3140	7.060725	30.65993
1441	6.36964	3.0794667	26.2114	26.0657	7.059267	30.64491
1442	6.38223	3.0791478	25.9646	25.8204	7.057837	30.63020
1443	6.39605	3.0789698	25.7210	25.5781	7.056182	30.61594
1444	6.40885	3.0787735	25.4681	25.3266	7.054664	30.60241
1445	6.42146	3.0787671	25.2151	25.0751	7.053076	30.59115
1446	6.43493	3.0784727	24.9683	24.8297	7.051523	30.57595
1447	6.44852	3.0782825	24.7184	24.5812	7.049905	30.56180
1448	6.46216	3.0782149	24.4686	24.3327	7.048219	30.54896
1449	6.47447	3.0779083	24.2218	24.0873	7.046821	30.53470
1450	6.48770	3.0776875	23.9659	23.8329	7.045263	30.52056
1451	6.50059	3.0780917	23.7223	23.5906	7.043435	30.51359
1452	6.51332	3.0780609	23.4724	23.3421	7.041846	30.50200
1453	6.52539	3.0781526	23.2226	23.0937	7.040279	30.49234
1454	6.53695	3.0783424	22.9698	22.8424	7.038728	30.48423
1455	6.55057	3.0781829	22.7231	22.5970	7.037094	30.47045
1456	6.56594	3.0782378	22.4732	22.3485	7.035133	30.45747
1457	6.58501	3.0785256	22.2263	22.1030	7.032591	30.44374
1458	6.60570	3.0781515	21.9766	21.8547	7.030180	30.42137
1459	6.62284	3.0778142	21.7267	21.6062	7.028196	30.40256
1460	6.63695	3.0778875	21.4709	21.3518	7.026387	30.39095
1461	6.65276	3.0775686	21.2240	21.1064	7.024561	30.37355
1462	6.67281	3.0773845	20.9741	20.8578	7.022138	30.35388
1463	6.69668	3.0773045	20.7274	20.6125	7.019186	30.33198
1464	6.71892	3.0771694	20.4745	20.3610	7.016467	30.31095
1465	6.74060	3.0771262	20.2247	20.1126	7.013773	30.29144
1466	6.76156	3.0772730	19.9686	19.8579	7.011076	30.27464
1467	6.77980	3.0771073	19.7220	19.6127	7.008875	30.25686
1468	6.79402	3.0768068	19.4690	19.3611	7.007244	30.24118
1469	6.80550	3.0765799	19.2161	19.1096	7.005919	30.22872
1470	6.81568	3.0765430	18.9665	18.8614	7.004661	30.21946
1471	6.82391	3.0762242	18.7135	18.6098	7.003787	30.20887
1472	6.83079	3.0763344	18.4667	18.3644	7.002869	30.20413
1473	6.83648	3.0763649	18.2229	18.1220	7.002139	30.19956
1474	6.84124	3.0760216	17.9700	17.8705	7.001710	30.19177
1475	6.84787	3.0758438	17.7141	17.6160	7.000966	30.18413
1476	6.85481	3.0763093	17.4583	17.3616	6.999867	30.18320
1477	6.86123	3.0761805	17.2175	17.1222	6.999125	30.17627
1478	6.86635	3.0758679	16.9677	16.8738	6.998635	30.16849
1479	6.87014	3.0755308	16.7209	16.6283	6.998325	30.16163
1480	6.87568	3.0755185	16.4649	16.3738	6.997635	30.15674
1481	6.88226	3.0756654	16.2151	16.1254	6.996738	30.15268
1482	6.88847	3.0758368	15.9682	15.8799	6.995874	30.14919
1483	6.89443	3.0760143	15.7156	15.6286	6.995039	30.14600
1484	6.90169	3.0759590	15.4687	15.3831	6.994158	30.13915
1485	6.91242	3.0758976	15.2188	15.1346	6.992847	30.12919
1486	6.92232	3.0758116	14.9689	14.8861	6.991651	30.11970
1487	6.93166	3.0762403	14.7191	14.6377	6.990274	30.11628
1488	6.94338	3.0762769	14.4722	14.3922	6.988792	30.10652
1489	6.95968	3.0762706	14.2225	14.1439	6.986763	30.09231
1490	6.99000	3.0761293	13.9694	13.8922	6.983058	30.06440
1491	7.02565	3.0753446	13.7320	13.6561	6.979008	30.02494
1492	7.06175	3.0748173	13.4791	13.4046	6.974780	29.98794
1493	7.09704	3.0746699	13.2260	13.1529	6.970468	29.95579
1494	7.13070	3.0742652	12.9761	12.9045	6.966488	29.92234
1495	7.17195	3.0735297	12.7201	12.6498	6.961731	29.87883
1496	7.22181	3.0732718	12.4767	12.4078	6.955681	29.83309
1497	7.27335	3.0730018	12.2328	12.1653	6.949436	29.78588
1498	7.33244	3.0725418	11.9860	11.9198	6.942357	29.73026
1499	7.39655	3.0716470	11.7393	11.6744	6.934877	29.66586
1500	7.45688	3.0714565	11.4924	11.4289	6.927535	29.61239
1501	7.50698	3.0709660	11.2304	11.1684	6.921602	29.56458
1502	7.54982	3.0705247	10.9804	10.9198	6.916543	29.52357
1503	7.58697	3.0700038	10.7305	10.6713	6.912226	29.48662
1504	7.61845	3.0698014	10.4839	10.4260	6.908455	29.45791
1505	7.64446	3.0698256	10.2371	10.1806	6.905250	29.43627
1506	7.66621	3.0703824	9.9841	9.9290	6.902317	29.42389
1507	7.68528	3.0704067	9.7373	9.6836	6.899965	29.40814
1508	7.70246	3.0699105	9.4845	9.4321	6.898092	29.38851
1509	7.71763	3.0695185	9.2407	9.1897	6.896415	29.37167
1510	7.73070	3.0689244	8.9878	8.9383	6.895092	29.35450
1511	7.74599	3.0683855	8.7412	8.6930	6.893471	29.33604
1512	7.76404	3.0675835	8.4972	8.4504	6.891636	29.31250
1513	7.78744	3.0668181	8.2413	8.1959	6.889129	29.28487
1514	7.81982	3.0667076	7.9944	7.9503	6.885221	29.25666
1515	7.85944	3.0668234	7.7477	7.7050	6.880325	29.22481
1516	7.91669	3.0664800	7.5007	7.4594	6.873501	29.17348
1517	8.00899	3.0659222	7.2512	7.2112	6.862519	29.09089
1518	8.12426	3.0652173	6.9920	6.9535	6.848840	28.98814
1519	8.25755	3.0647570	6.7482	6.7111	6.832905	28.87368
1520	8.39424	3.0638317	6.5074	6.4716	6.816819	28.75230
1521	8.51602	3.0624908	6.2606	6.2261	6.802759	28.63948
1522	8.62552	3.0614682	6.0261	5.9929	6.790065	28.54048
1523	8.73110	3.0614365	5.7853	5.7534	6.777428	28.45529
1524	8.84843	3.0617900	5.5478	5.5172	6.763248	28.36506
1525	8.96709	3.0614646	5.3100	5.2808	6.749251	28.26731
1526	9.07479	3.0613779	5.0661	5.0382	6.736488	28.18117
1527	9.17774	3.0619884	4.8225	4.7960	6.724017	28.10626
1528	9.27354	3.0627152	4.5909	4.5656	6.712373	28.03846
1529	9.36643	3.0633198	4.3471	4.3232	6.701153	27.97197
1530	9.46479	3.0626887	4.1094	4.0868	6.689848	27.88907
1531	9.57060	3.0619842	3.8626	3.8413	6.677725	27.80004
1532	9.67265	3.0613654	3.6341	3.6141	6.666034	27.71517
1533	9.77419	3.0602085	3.4024	3.3837	6.654657	27.62573
1534	9.89762	3.0616382	3.1618	3.1444	6.639671	27.54572
1535	10.08239	3.0641565	2.9241	2.9080	6.617177	27.43041
1536	10.28386	3.0667610	2.6895	2.6747	6.592842	27.30428
1537	10.50332	3.0695315	2.4609	2.4474	6.566517	27.16743
1538	10.72651	3.0718314	2.2172	2.2050	6.540118	27.02450
1539	10.94907	3.0718230	1.9917	1.9807	6.514865	26.86105
1540	11.15261	3.0710126	1.7478	1.7382	6.492206	26.70526
1541	11.32394	3.0694802	1.5225	1.5141	6.473547	26.56707
1542	11.45306	3.0656842	1.2847	1.2777	6.460552	26.43850
1543	11.55395	3.0607466	1.0624	1.0566	6.451175	26.31988
1544	11.64650	3.0563866	0.8400	0.8354	6.442515	26.21318
1545	11.72984	3.0534647	0.6174	0.6140	6.434340	26.12699
1546	11.81636	3.0612208	0.4133	0.4111	6.421770	26.13954
1547	11.94113	3.0570864	0.2487	0.2474	6.409504	26.01350
1548	11.98860	3.0639164	0.1451	0.1443	6.401682	26.04458
1549	11.18047	3.0553826	0.0935	0.0930	6.495175	26.53577
1550	10.12217	3.0501697	0.0966	0.0961	6.618327	27.26330
1551	9.42038	3.0571664	0.0966	0.0961	6.697378	27.86958
1552	8.75790	3.0692299	0.0906	0.0901	6.770651	28.51606
1553	8.20881	3.0740056	0.0937	0.0932	6.834439	29.01293
1554	7.79761	1.4433728	0.0877	0.0872	7.658386	12.84656
1555	7.56879	0.5548800	0.0969	0.0964	8.121039	4.62189
1556	7.51277	0.6014280	0.0970	0.0965	8.109893	5.04583
1557	7.50782	0.7113493	0.1000	0.0995	8.058848	6.04076
1558	7.52113	0.7771292	0.1033	0.1027	8.025090	6.63970
1559	7.54472	0.7106188	0.0972	0.0966	8.052286	6.02771
1560	7.56136	0.7788654	0.0942	0.0937	8.016813	6.64794
1561	7.57258	0.7845885	0.0973	0.0968	8.012019	6.69826
1562	7.58112	0.7139126	0.1004	0.0998	8.043923	6.05135
1563	7.58908	0.7409414	0.0974	0.0969	8.029654	6.29605
1564	7.59867	0.6491626	0.0974	0.0969	8.071159	5.46228
1565	7.60774	0.4123564	0.0914	0.0909	8.179568	3.36366
1566	7.61686	0.3718697	0.0946	0.0940	8.196312	3.01269
1567	7.62552	0.3978410	0.0975	0.0970	8.182753	3.23615
1568	7.63401	0.4640907	0.0947	0.0942	8.150660	3.81216
1569	7.64309	0.3565009	0.0888	0.0883	8.198167	2.87839
1570	7.65175	0.4028756	0.0979	0.0973	8.175334	3.27728
1571	7.65935	0.2822998	0.0949	0.0944	8.228448	2.24614
1572	7.66648	0.2330854	0.0951	0.0945	8.248958	1.83376
1573	7.67382	0.2514741	0.0920	0.0915	8.239335	1.98660
1574	7.68037	0.2864795	0.0949	0.0944	8.222415	2.28001
1575	7.68708	0.2822581	0.0921	0.0916	8.222977	2.24401
1576	7.69358	0.3086643	0.0892	0.0887	8.209855	2.46664
1577	7.69961	0.2877385	0.0922	0.0917	8.218049	2.28937
1578	7.70579	0.3875454	0.0953	0.0947	8.171794	3.13991
1579	7.71187	0.3843486	0.0923	0.0918	8.172063	3.11183
1580	7.71774	0.3923851	0.0862	0.0857	8.167266	3.18055
1581	7.72361	0.3110809	0.0955	0.0950	8.202857	2.48499
1582	7.72964	0.2560589	0.0955	0.0950	8.226219	2.02171
1583	7.73556	0.2610927	0.0987	0.0982	8.222812	2.06343
1584	7.74112	0.3086538	0.0956	0.0951	8.200500	2.46320
1585	7.74673	0.3069925	0.0958	0.0953	8.200141	2.44876
1586	7.75207	0.2464827	0.0958	0.0953	8.226013	1.94059
1587	7.75737	0.2319170	0.0990	0.0984	8.231390	1.81933
1588	7.76239	0.2043892	0.0960	0.0955	8.242468	1.59193
1589	7.76742	0.2062259	0.0960	0.0954	8.240663	1.60679
1590	7.77182	0.2012177	0.0960	0.0954	8.241975	1.56547
1591	7.77425	0.1974052	0.1022	0.1016	8.243153	1.53410
1592	7.77764	0.1927901	0.0993	0.0988	8.244487	1.49618
1593	7.78241	1.0015999	0.0932	0.0927	7.871088	8.65871
1594	7.78712	2.4156183	0.0932	0.0927	7.196502	22.52318
1595	7.79104	2.3052489	0.0995	0.0989	7.248390	21.39581
1596	7.79454	1.8185950	0.1025	0.1020	7.479785	16.51411
1597	7.79852	0.9077334	0.0933	0.0928	7.912554	7.78438
1598	7.80493	1.6264292	0.0936	0.0931	7.569865	14.62092
1599	7.81023	2.1398194	0.0997	0.0991	7.324311	19.71127
1600	7.81388	3.1030401	0.0937	0.0932	6.868779	29.64843
1601	7.76912	3.1028808	0.0906	0.0901	6.874283	29.68481
1602	7.59408	1.1351714	0.0936	0.0931	7.840549	9.96445
1603	7.44075	0.6725097	0.0938	0.0932	8.089920	5.69884
1604	7.37568	0.4933929	0.0969	0.0963	8.187111	4.09974
1605	7.35660	0.4034814	0.0967	0.0962	8.232911	3.31045
1606	7.35298	0.3303427	0.0969	0.0963	8.267492	2.67681
1607	7.35487	0.2922650	0.0969	0.0964	8.284586	2.35064
1608	7.35901	0.3124852	0.0971	0.0966	8.274497	2.52310
1609	7.36415	0.3174539	0.0910	0.0905	8.271192	2.56530
1610	7.37012	0.2890436	0.0940	0.0935	8.283003	2.32218
1611	7.37610	0.2582945	0.0972	0.0967	8.295793	2.06112
1612	7.38260	0.2355024	0.0973	0.0967	8.304789	1.86897
1613	7.38921	0.2190122	0.0943	0.0938	8.310873	1.73070
1614	7.39624	0.2062093	0.0973	0.0968	8.315187	1.62378
