Scan Count	Temperature [ITS-90, deg C]	Conductivity [S/m]	Depth [salt water, m]	Oxygen Saturation, Weiss [ml/l]	Salinity, Practical [PSU]
1	12.02189	0.0001323	-0.0066	7.529220	0.00641
2	12.02124	0.0001169	-0.0066	7.529334	0.00636
3	12.02053	0.0001169	-0.0096	7.529456	0.00636
4	12.01946	0.0000984	-0.0065	7.529641	0.00631
5	12.01816	0.0000922	-0.0127	7.529865	0.00629
6	12.01645	0.0000891	-0.0036	7.530159	0.00629
7	12.01592	0.0000922	-0.0158	7.530250	0.00629
8	12.01627	0.0000922	-0.0096	7.530189	0.00629
9	12.01674	0.0000984	-0.0066	7.530108	0.00631
10	12.01680	0.0000922	-0.0098	7.530098	0.00629
11	12.01740	0.0000891	-0.0068	7.529997	0.00629
12	12.01775	0.0000737	-0.0038	7.529938	0.00625
13	12.01787	0.0000830	-0.0098	7.529916	0.00627
14	12.01805	0.0000830	-0.0008	7.529886	0.00627
15	12.01822	0.0000830	-0.0067	7.529856	0.00627
16	12.01870	0.0000460	-0.0151	7.529777	0.00621
17	12.01864	-0.0000126	-0.0204	7.530080	0.00000
18	12.01929	-0.0000065	-0.0179	7.529968	0.00000
19	12.01952	0.0000336	-0.0118	7.529635	0.00621
20	12.01941	0.0000120	-0.0083	7.529654	0.00625
21	12.01994	0.0000460	-0.0142	7.529564	0.00621
22	12.02000	0.0000521	-0.0102	7.529554	0.00622
23	12.02071	0.0000645	-0.0040	7.529431	0.00624
24	12.02142	0.0000676	-0.0042	7.529309	0.00624
25	12.02165	0.0000460	-0.0098	7.529270	0.00622
26	12.02248	0.0000213	-0.0086	7.529127	0.00622
27	12.02307	0.0000336	-0.0092	7.529026	0.00621
28	12.02360	0.0000028	-0.0147	7.528929	0.00633
29	12.02331	-0.0000589	-0.0202	7.529278	0.00000
30	12.02366	0.0000367	-0.0135	7.528925	0.00621
31	12.02437	0.0000460	-0.0094	7.528803	0.00622
32	12.02443	0.0000275	-0.0080	7.528793	0.00622
33	12.02425	0.0000028	-0.0095	7.528818	0.00633
34	12.02502	0.0000429	-0.0039	7.528691	0.00621
35	12.02585	0.0000552	-0.0069	7.528549	0.00623
36	12.02621	0.0000552	-0.0040	7.528488	0.00623
37	12.02621	0.0000583	-0.0009	7.528488	0.00623
38	12.02615	0.0000552	-0.0010	7.528498	0.00623
39	12.02597	0.0000552	-0.0008	7.528528	0.00623
40	12.02615	0.0000583	-0.0039	7.528498	0.00623
41	12.02638	0.0000645	-0.0071	7.528457	0.00624
42	12.02638	0.0000583	-0.0041	7.528457	0.00623
43	12.02674	0.0000460	-0.0042	7.528397	0.00622
44	12.02650	0.0000460	-0.0131	7.528438	0.00622
45	12.02674	0.0000521	-0.0010	7.528397	0.00622
46	12.02674	0.0000521	0.0081	7.528397	0.00622
47	12.18233	1.6483578	0.1384	6.910189	13.14767
48	12.89049	2.9767037	0.2987	6.334520	24.63080
49	13.49117	3.0370975	0.4444	6.248160	24.78867
50	13.89409	3.0548734	0.5531	6.199266	24.68842
51	14.11703	3.0266115	0.6351	6.185361	24.29585
52	14.22812	3.0467230	0.6228	6.166926	24.40385
53	14.29796	3.0636609	0.6260	6.153957	24.50936
54	14.33697	3.0660770	0.6349	6.149087	24.50603
55	14.35425	3.0660157	0.6591	6.147310	24.49457
56	14.36560	3.0657219	0.6683	6.146226	24.48482
57	14.37330	3.0625224	0.6774	6.146491	24.45177
58	14.37943	3.0594771	0.6743	6.146868	24.42110
59	14.38157	3.0578327	0.6684	6.147192	24.40527
60	14.38138	3.0507879	0.6622	6.149557	24.34337
61	14.38391	3.0603147	0.6381	6.146122	24.42567
62	14.38801	3.0690937	0.6228	6.142773	24.50040
63	14.39149	3.0702628	0.6077	6.142023	24.50851
64	14.39281	3.0698894	0.6046	6.142010	24.50439
65	14.39521	3.0723874	0.6258	6.140930	24.52487
66	14.39736	3.0619106	0.6501	6.144192	24.43126
67	14.39086	3.0320908	0.6560	6.154794	24.17297
68	14.38372	3.0307687	0.6530	6.155980	24.16579
69	14.34958	3.0376378	0.6501	6.157259	24.24752
70	14.31522	3.0552664	0.6289	6.154963	24.42441
71	14.31314	3.0658692	0.6046	6.151637	24.51926
72	14.33501	3.0718246	0.6348	6.147373	24.55796
73	14.35671	3.0726205	0.6441	6.144852	24.55125
74	14.37318	3.0717202	0.6531	6.143441	24.53290
75	14.38366	3.0705323	0.6530	6.142747	24.51581
76	14.39073	3.0685428	0.6470	6.142675	24.49383
77	14.39900	3.0720996	0.6560	6.140632	24.51993
78	14.40759	3.0759152	0.6591	6.138472	24.54810
79	14.41467	3.0783660	0.6621	6.136923	24.56521
80	14.42048	3.0776735	0.6439	6.136551	24.55544
81	14.42017	3.0758599	0.6289	6.137186	24.53968
82	14.41157	3.0733303	0.6075	6.138918	24.52285
83	14.40595	3.0728527	0.6017	6.139660	24.52219
84	14.41164	3.0843615	0.6197	6.135245	24.61995
85	14.41973	3.0857904	0.6378	6.133932	24.62740
86	14.42055	3.0736977	0.6651	6.137865	24.52040
87	14.41353	3.0500731	0.6803	6.146446	24.31694
88	14.40841	3.0440054	0.6952	6.148997	24.26678
89	14.37633	3.0426389	0.6955	6.152798	24.27480
90	14.34195	3.0512219	0.6830	6.153525	24.37193
91	14.31642	3.0621560	0.6683	6.152537	24.48441
92	14.31314	3.0716595	0.6591	6.149703	24.57034
93	14.33142	3.0747766	0.6470	6.146761	24.58627
94	14.35425	3.0755482	0.6379	6.144132	24.57862
95	14.36889	3.0751560	0.6318	6.142742	24.56590
96	14.37962	3.0801743	0.6227	6.139957	24.60334
97	14.39509	3.0857661	0.6318	6.136492	24.64281
98	14.40835	3.0831044	0.6530	6.136003	24.61095
99	14.41075	3.0597642	0.6681	6.143513	24.40394
100	14.40652	3.0483024	0.6743	6.147765	24.30576
101	14.37602	3.0442803	0.6832	6.152284	24.28945
102	14.29670	3.0520347	0.6743	6.157976	24.40755
103	14.23629	3.0624321	0.6772	6.160803	24.53751
104	14.21033	3.0672348	0.6772	6.161901	24.59645
105	14.22026	3.0657539	0.6651	6.161362	24.57705
106	14.23755	3.0589100	0.6560	6.161852	24.50558
107	14.24308	3.0604078	0.6499	6.160772	24.51532
108	14.25862	3.0677362	0.6408	6.156695	24.57025
109	14.29374	3.0784285	0.6500	6.149459	24.64242
110	14.32972	3.0844666	0.6620	6.143705	24.67287
111	14.35772	3.0862940	0.6802	6.140190	24.67118
112	14.37829	3.0809957	0.6862	6.139822	24.61140
113	14.38435	3.0625529	0.6892	6.145332	24.44508
114	14.38284	3.0581444	0.6863	6.146957	24.40722
115	14.39016	3.0622471	0.6741	6.144829	24.43874
116	14.38934	3.0711935	0.6682	6.141937	24.51805
117	14.38561	3.0744881	0.6620	6.141228	24.54943
118	14.38366	3.0691794	0.6620	6.143198	24.50389
119	14.37848	3.0574782	0.6680	6.147632	24.40410
120	14.37217	3.0541355	0.6712	6.149403	24.37863
121	14.36958	3.0585480	0.6803	6.148203	24.41911
122	14.36649	3.0678881	0.6772	6.145413	24.50335
123	14.36478	3.0697672	0.6833	6.144964	24.52098
124	14.36340	3.0639294	0.6680	6.147053	24.47041
125	14.35519	3.0580896	0.6650	6.149854	24.42413
126	14.34718	3.0587560	0.6651	6.150466	24.43504
127	14.34599	3.0587561	0.6771	6.150591	24.43579
128	14.34681	3.0588416	0.6771	6.150477	24.43603
129	14.34636	3.0574968	0.6770	6.150972	24.42445
130	14.34498	3.0511120	0.6831	6.153246	24.36906
131	14.34390	3.0474239	0.6801	6.154588	24.33724
132	14.33192	3.0459102	0.6740	6.156344	24.33142
133	14.28851	3.0516622	0.6680	6.158956	24.40942
134	14.25918	3.0579989	0.6649	6.159898	24.48386
135	14.24660	3.0582069	0.6740	6.161142	24.49364
136	14.23843	3.0488841	0.6832	6.165123	24.41643
137	14.22366	3.0441475	0.6861	6.168259	24.38388
138	14.20600	3.0452889	0.6861	6.169725	24.40509
139	14.17197	3.0529034	0.6863	6.170731	24.49394
140	14.14788	3.0585746	0.6830	6.171344	24.55943
141	14.14186	3.0544983	0.6829	6.173348	24.52714
142	14.13784	3.0453506	0.6830	6.176852	24.44865
143	14.13421	3.0426230	0.6679	6.178154	24.42680
144	14.11534	3.0459612	0.6559	6.179009	24.46830
145	14.09110	3.0546698	0.6437	6.178612	24.56088
146	14.07952	3.0608986	0.6528	6.177722	24.62352
147	14.08277	3.0590766	0.6738	6.177997	24.60527
148	14.09448	3.0518779	0.6830	6.179201	24.53396
149	14.10601	3.0466327	0.6891	6.179763	24.48015
150	14.12192	3.0455644	0.6891	6.178452	24.46061
151	14.11553	3.0450152	0.6888	6.179309	24.45979
152	14.09367	3.0484826	0.6799	6.180434	24.50437
153	14.08315	3.0528249	0.6738	6.180071	24.54956
154	14.08321	3.0540650	0.6738	6.179645	24.56052
155	14.08903	3.0493130	0.6677	6.180640	24.51467
156	14.08665	3.0448751	0.6678	6.182389	24.47682
157	14.08396	3.0440757	0.6738	6.182943	24.47144
158	14.08440	3.0462300	0.6768	6.182168	24.49027
159	14.08628	3.0476096	0.6709	6.181505	24.50131
160	14.08659	3.0461995	0.6647	6.181948	24.48861
161	14.08259	3.0444357	0.6677	6.182966	24.47550
162	14.07507	3.0463156	0.6677	6.183120	24.49694
163	14.07288	3.0512368	0.6796	6.181686	24.54199
164	14.07845	3.0494352	0.6888	6.181710	24.52246
165	14.08165	3.0424283	0.6888	6.183743	24.45829
166	14.07714	3.0395675	0.6828	6.185184	24.43577
167	14.05161	3.0402386	0.6675	6.187644	24.45788
168	14.01148	3.0475859	0.6524	6.189379	24.54860
169	13.99237	3.0556363	0.6675	6.188658	24.63233
170	13.99824	3.0579159	0.6797	6.187267	24.64886
171	14.02910	3.0512251	0.7008	6.186291	24.56970
172	14.05418	3.0447411	0.6947	6.185850	24.49621
173	14.07257	3.0421355	0.6917	6.184797	24.46144
174	14.05805	3.0438319	0.6826	6.185750	24.48568
175	14.03285	3.0503028	0.6674	6.186209	24.55914
176	14.02129	3.0555138	0.6555	6.185658	24.61280
177	14.03379	3.0545238	0.6522	6.184680	24.59604
178	14.05092	3.0473352	0.6582	6.185314	24.52131
179	14.06569	3.0444969	0.6554	6.184722	24.48676
180	14.09116	3.0468770	0.6674	6.181239	24.49172
181	14.10325	3.0504731	0.6734	6.178755	24.51594
182	14.10701	3.0477315	0.6855	6.179286	24.48925
183	14.10475	3.0427697	0.6854	6.181199	24.44670
184	14.10394	3.0418790	0.6824	6.181585	24.43932
185	14.08672	3.0446432	0.6853	6.182461	24.47472
186	14.05905	3.0481532	0.6885	6.184182	24.52340
187	14.04567	3.0497531	0.7006	6.185048	24.54610
188	14.03798	3.0464197	0.6884	6.186986	24.52139
189	14.02848	3.0431976	0.6762	6.189078	24.49881
190	14.02185	3.0425936	0.6611	6.189980	24.49765
191	14.02054	3.0463894	0.6520	6.188831	24.53221
192	14.01979	3.0509381	0.6518	6.187367	24.57310
193	14.01773	3.0496495	0.6578	6.188021	24.56296
194	14.01560	3.0432587	0.6670	6.190413	24.50752
195	14.01516	3.0406050	0.6550	6.191359	24.48423
196	14.00685	3.0444670	0.6489	6.190924	24.52382
197	13.99386	3.0520622	0.6488	6.189713	24.59960
198	13.99305	3.0564674	0.6610	6.188303	24.63929
199	14.01410	3.0539863	0.6790	6.186932	24.60380
200	14.04448	3.0468347	0.7003	6.186161	24.52094
201	14.06275	3.0444665	0.7155	6.185042	24.48833
202	14.08277	3.0436059	0.7214	6.183227	24.46801
203	14.07532	3.0441978	0.7123	6.183810	24.47798
204	14.05893	3.0457115	0.6941	6.185022	24.50181
205	14.04961	3.0476710	0.6849	6.185338	24.52511
206	14.05099	3.0503026	0.6607	6.184303	24.54761
207	14.05818	3.0536498	0.6486	6.182414	24.57276
208	14.07714	3.0562649	0.6425	6.179538	24.58391
209	14.11766	3.0575358	0.6485	6.174860	24.56942
210	14.16732	3.0545347	0.6544	6.170668	24.51133
211	14.19099	3.0479321	0.6606	6.170410	24.43794
212	14.18923	3.0459604	0.6575	6.171257	24.42161
213	14.18358	3.0495197	0.6605	6.170652	24.45666
214	14.16983	3.0577736	0.6695	6.169315	24.53841
215	14.17247	3.0617172	0.6848	6.167713	24.57165
216	14.20411	3.0574677	0.7029	6.165832	24.51397
217	14.22039	3.0487683	0.7119	6.167050	24.42677
218	14.23541	3.0448309	0.7119	6.166799	24.38251
219	14.21172	3.0452156	0.7029	6.169151	24.40084
220	14.16908	3.0499534	0.6967	6.172026	24.46965
221	14.14618	3.0538872	0.6877	6.173101	24.51898
222	14.14292	3.0550726	0.6755	6.173043	24.53155
223	14.15051	3.0540155	0.6603	6.172604	24.51738
224	14.15685	3.0514009	0.6543	6.172820	24.49022
225	14.15528	3.0496177	0.6573	6.173585	24.47542
226	14.15346	3.0495200	0.6511	6.173809	24.47571
227	14.15534	3.0505642	0.6571	6.173260	24.48376
228	14.16048	3.0511993	0.6662	6.172507	24.48613
229	14.16739	3.0515413	0.6693	6.171669	24.48479
230	14.17335	3.0509671	0.6751	6.171237	24.47593
231	14.17686	3.0490679	0.6932	6.171508	24.45690
232	14.17667	3.0461437	0.7085	6.172512	24.43114
233	14.17498	3.0441663	0.6932	6.173355	24.41472
234	14.16883	3.0459423	0.6964	6.173402	24.43431
235	14.14236	3.0505949	0.6842	6.174611	24.49224
236	14.12900	3.0546695	0.6810	6.174638	24.53680
237	14.13076	3.0542967	0.6842	6.174580	24.53239
238	14.13070	3.0497400	0.6661	6.176122	24.49206
239	14.12675	3.0477313	0.6599	6.177214	24.47676
240	14.13088	3.0503202	0.6597	6.175907	24.49708
241	14.14110	3.0554209	0.6567	6.173116	24.53579
242	14.15076	3.0548098	0.6718	6.172310	24.52425
243	14.15490	3.0485369	0.6779	6.173989	24.46608
244	14.15910	3.0445265	0.6749	6.174899	24.42793
245	14.14643	3.0445816	0.6717	6.176210	24.43642
246	14.10958	3.0509616	0.6687	6.177926	24.51626
247	14.08672	3.0554826	0.6686	6.178798	24.57087
248	14.08321	3.0538940	0.6746	6.179703	24.55900
249	14.08208	3.0469198	0.6929	6.182179	24.49785
250	14.08334	3.0435875	0.6837	6.183174	24.46750
251	14.07457	3.0445274	0.6897	6.183777	24.48139
252	14.05812	3.0508522	0.6807	6.183367	24.54795
253	14.05161	3.0544136	0.6777	6.182845	24.58371
254	14.05430	3.0535399	0.6776	6.182858	24.57424
255	14.05755	3.0471215	0.6776	6.184689	24.51520
256	14.05636	3.0436061	0.6776	6.186004	24.48475
257	14.05261	3.0432217	0.6654	6.186529	24.48372
258	14.03660	3.0497226	0.6624	6.186011	24.55160
259	14.02754	3.0549332	0.6532	6.185198	24.60366
260	14.02816	3.0573349	0.6502	6.184318	24.62460
261	14.03304	3.0536501	0.6531	6.185055	24.58876
262	14.03529	3.0488556	0.6745	6.186443	24.54473
263	14.04135	3.0473353	0.6894	6.186320	24.52737
264	14.05161	3.0483365	0.6954	6.184903	24.52975
265	14.05818	3.0484280	0.7015	6.184181	24.52639
266	14.05812	3.0466026	0.6923	6.184806	24.51023
267	14.05580	3.0466027	0.6834	6.185049	24.51170
268	14.05418	3.0478480	0.6802	6.184798	24.52379
269	14.05349	3.0493500	0.6711	6.184362	24.53756
270	14.05292	3.0513286	0.6649	6.183751	24.55549
271	14.05324	3.0545541	0.6590	6.182627	24.58393
272	14.05411	3.0555135	0.6619	6.182210	24.59189
273	14.05743	3.0518050	0.6618	6.183117	24.55685
274	14.05937	3.0480922	0.6679	6.184170	24.52266
275	14.06181	3.0471215	0.6800	6.184242	24.51250
276	14.06043	3.0498934	0.6859	6.183449	24.53797
277	14.05455	3.0528740	0.6859	6.183058	24.56817
278	14.04736	3.0536805	0.6829	6.183540	24.57990
279	14.03942	3.0517746	0.6798	6.185020	24.56803
280	14.03310	3.0499242	0.6707	6.186311	24.55561
281	14.02841	3.0498082	0.6646	6.186843	24.55757
282	14.02560	3.0535157	0.6645	6.185882	24.59230
283	14.02516	3.0575917	0.6644	6.184547	24.62879
284	14.03785	3.0575366	0.6766	6.183233	24.62021
285	14.06500	3.0507178	0.6767	6.182690	24.54239
286	14.08108	3.0459432	0.6796	6.182614	24.48982
287	14.07983	3.0449850	0.6645	6.183069	24.48212
288	14.05787	3.0513408	0.6492	6.183228	24.55246
289	14.04185	3.0567358	0.6673	6.183083	24.61055
290	14.04892	3.0607033	0.6643	6.180998	24.64129
291	14.08021	3.0587281	0.6794	6.178384	24.60381
292	14.10707	3.0520061	0.6976	6.177837	24.52710
293	14.12242	3.0494653	0.6915	6.177083	24.49486
294	14.13765	3.0505888	0.6823	6.175106	24.49517
295	14.12969	3.0564111	0.6671	6.173978	24.55180
296	14.12737	3.0616931	0.6519	6.172440	24.60010
297	14.14455	3.0637786	0.6519	6.169939	24.60766
298	14.18590	3.0642370	0.6610	6.165460	24.58543
299	14.22120	3.0633130	0.6761	6.162083	24.55485
300	14.23899	3.0587877	0.6912	6.161743	24.50358
301	14.23868	3.0538558	0.7002	6.163429	24.46019
302	14.24692	3.0517237	0.6972	6.163283	24.43616
303	14.24686	3.0514000	0.6790	6.163398	24.43334
304	14.22466	3.0544363	0.6608	6.164700	24.47419
305	14.21090	3.0588491	0.6548	6.164658	24.52191
306	14.21084	3.0638085	0.6456	6.162999	24.56582
307	14.21291	3.0665127	0.6425	6.161874	24.58843
308	14.22014	3.0663658	0.6577	6.161169	24.58254
309	14.23673	3.0617226	0.6727	6.160995	24.53096
310	14.24182	3.0566972	0.6968	6.162148	24.48331
311	14.24692	3.0543506	0.7031	6.162402	24.45936
312	14.25528	3.0529637	0.7030	6.161993	24.44183
313	14.24516	3.0523834	0.6909	6.163246	24.44310
314	14.22296	3.0557562	0.6665	6.164435	24.48693
315	14.21260	3.0634293	0.6482	6.162942	24.56135
316	14.21517	3.0697381	0.6421	6.160555	24.61553
317	14.22843	3.0721564	0.6482	6.158361	24.62849
318	14.26095	3.0704723	0.6664	6.155536	24.59295
319	14.28203	3.0618567	0.6815	6.156222	24.50349
320	14.28883	3.0571001	0.6907	6.157104	24.45720
321	14.29771	3.0547839	0.6906	6.156952	24.43116
322	14.28001	3.0543502	0.6814	6.158944	24.43849
323	14.25359	3.0581090	0.6723	6.160446	24.48836
324	14.23943	3.0644139	0.6691	6.159810	24.55304
325	14.23975	3.0692727	0.6691	6.158148	24.59579
326	14.24774	3.0671182	0.6660	6.158037	24.57168
327	14.25182	3.0595518	0.6660	6.160146	24.50223
328	14.25535	3.0569843	0.6660	6.160639	24.47732
329	14.26176	3.0597412	0.6661	6.159045	24.49762
330	14.26271	3.0648541	0.6811	6.157234	24.54218
331	14.26705	3.0683420	0.6810	6.155613	24.57025
332	14.27145	3.0638385	0.6901	6.156662	24.52767
333	14.26812	3.0573081	0.6718	6.159196	24.47211
334	14.26390	3.0569170	0.6566	6.159767	24.47132
335	14.25252	3.0654048	0.6476	6.158112	24.55351
336	14.23767	3.0741956	0.6566	6.156713	24.64065
337	14.24673	3.0772341	0.6746	6.154752	24.66176
338	14.28077	3.0691560	0.6870	6.153911	24.56874
339	14.30205	3.0584814	0.6928	6.155263	24.46105
340	14.31308	3.0516009	0.6808	6.156411	24.39342
341	14.26648	3.0549003	0.6716	6.160174	24.45188
342	14.20399	3.0660172	0.6533	6.162972	24.58971
343	14.17812	3.0715201	0.6593	6.163824	24.65488
344	14.17988	3.0666844	0.6775	6.165267	24.61093
345	14.18923	3.0587821	0.6744	6.166946	24.53504
346	14.19991	3.0573760	0.6745	6.166302	24.51584
347	14.19658	3.0638087	0.6654	6.164489	24.57487
348	14.18942	3.0685386	0.6683	6.163647	24.62128
349	14.18823	3.0679327	0.6745	6.163975	24.61667
350	14.19237	3.0616008	0.6712	6.165671	24.55799
351	14.19049	3.0581157	0.6620	6.167039	24.52835
352	14.18892	3.0599437	0.6560	6.166588	24.54552
353	14.18289	3.0663906	0.6530	6.165051	24.60642
354	14.17762	3.0706445	0.6560	6.164171	24.64744
355	14.18163	3.0711833	0.6833	6.163571	24.64965
356	14.19256	3.0657236	0.7011	6.164265	24.59435
357	14.19758	3.0603472	0.7133	6.165547	24.54358
358	14.20141	3.0571315	0.7043	6.166227	24.51271
359	14.19243	3.0557993	0.6889	6.167614	24.50661
360	14.18019	3.0612951	0.6587	6.167047	24.56302
361	14.17090	3.0684593	0.6435	6.165608	24.63237
362	14.16883	3.0736083	0.6406	6.164091	24.67930
363	14.17994	3.0716058	0.6466	6.163605	24.65448
364	14.19984	3.0631664	0.6495	6.164363	24.56711
365	14.21655	3.0615394	0.6494	6.163163	24.54212
366	14.22736	3.0670633	0.6555	6.160181	24.58412
367	14.22994	3.0718257	0.6646	6.158314	24.62460
368	14.23767	3.0693278	0.6888	6.158346	24.59759
369	14.24547	3.0631354	0.6890	6.159609	24.53791
370	14.24950	3.0603528	0.6978	6.160121	24.51076
371	14.24333	3.0602244	0.6857	6.160808	24.51353
372	14.22887	3.0647382	0.6735	6.160804	24.56260
373	14.22152	3.0687464	0.6734	6.160226	24.60272
374	14.22007	3.0699523	0.6765	6.159972	24.61430
375	14.22548	3.0661026	0.6734	6.160700	24.57682
376	14.22604	3.0624627	0.6763	6.161862	24.54427
377	14.22516	3.0613375	0.6672	6.162332	24.53488
378	14.22284	3.0629215	0.6611	6.162043	24.55036
379	14.22001	3.0659252	0.6582	6.161330	24.57872
380	14.21787	3.0686302	0.6399	6.160645	24.60401
381	14.21473	3.0717646	0.6428	6.159921	24.63374
382	14.21687	3.0734119	0.6611	6.159145	24.64695
383	14.22787	3.0693952	0.6700	6.159346	24.60442
384	14.23510	3.0641815	0.6851	6.160341	24.55373
385	14.23837	3.0608665	0.6790	6.161111	24.52235
386	14.22988	3.0597109	0.6759	6.162385	24.51751
387	14.21473	3.0638636	0.6641	6.162574	24.56383
388	14.20386	3.0692424	0.6485	6.161902	24.61833
389	14.19966	3.0716607	0.6667	6.161529	24.64241
390	14.20135	3.0685997	0.6729	6.162380	24.61423
391	14.20525	3.0640961	0.6758	6.163487	24.57190
392	14.21668	3.0635332	0.6787	6.162481	24.55967
393	14.22743	3.0664514	0.6758	6.160380	24.57866
394	14.23573	3.0690707	0.6725	6.158635	24.59656
395	14.24843	3.0678281	0.6785	6.157727	24.57751
396	14.25132	3.0638938	0.6756	6.158744	24.54091
397	14.24623	3.0623708	0.6665	6.159786	24.53068
398	14.24239	3.0664206	0.6484	6.158828	24.56891
399	14.23667	3.0725666	0.6362	6.157364	24.62689
400	14.23591	3.0755065	0.6483	6.156457	24.65337
401	14.24509	3.0720950	0.6664	6.156644	24.61736
402	14.25874	3.0661390	0.6723	6.157217	24.55605
403	14.27265	3.0642423	0.6722	6.156402	24.53049
404	14.27190	3.0669711	0.6661	6.155567	24.55507
405	14.26007	3.0727072	0.6601	6.154879	24.61326
406	14.25780	3.0767070	0.6691	6.153775	24.65005
407	14.26548	3.0747160	0.6903	6.153643	24.62757
408	14.27511	3.0671485	0.6932	6.155173	24.55460
409	14.28669	3.0631349	0.6963	6.155309	24.51182
410	14.28064	3.0656677	0.6721	6.155091	24.53802
411	14.26422	3.0719478	0.6629	6.154701	24.60391
412	14.25881	3.0745200	0.6507	6.154403	24.63009
413	14.26371	3.0720397	0.6537	6.154722	24.60505
414	14.26617	3.0682625	0.6566	6.155732	24.57011
415	14.27120	3.0672648	0.6568	6.155541	24.55811
416	14.28001	3.0671240	0.6566	6.154670	24.55128
417	14.28593	3.0674116	0.6628	6.153957	24.55007
418	14.28744	3.0682622	0.6626	6.153515	24.55663
419	14.28562	3.0700558	0.6686	6.153105	24.57362
420	14.28549	3.0716904	0.6808	6.152571	24.58813
421	14.28782	3.0701353	0.6987	6.152849	24.57292
422	14.28751	3.0665059	0.7019	6.154096	24.54107
423	14.28197	3.0646704	0.6867	6.155287	24.52837
424	14.27441	3.0666223	0.6775	6.155422	24.55039
425	14.26334	3.0730317	0.6621	6.154430	24.61405
426	14.25642	3.0785392	0.6533	6.153306	24.66714
427	14.26541	3.0789803	0.6655	6.152222	24.66531
428	14.28184	3.0736685	0.6682	6.152290	24.60793
429	14.29437	3.0692109	0.6622	6.152476	24.56062
430	14.31213	3.0697984	0.6591	6.150430	24.55456
431	14.31566	3.0757017	0.6501	6.148091	24.60443
432	14.31541	3.0795988	0.6438	6.146815	24.63899
433	14.32348	3.0771230	0.6561	6.146804	24.61201
434	14.32959	3.0725350	0.6741	6.147700	24.56765
435	14.33905	3.0707470	0.6862	6.147313	24.54589
436	14.35109	3.0703490	0.6983	6.146193	24.53475
437	14.35412	3.0690389	0.6922	6.146315	24.52129
438	14.34599	3.0678883	0.6830	6.147545	24.51629
439	14.33508	3.0694492	0.6708	6.148159	24.53696
440	14.32783	3.0736374	0.6527	6.147515	24.57850
441	14.32953	3.0791880	0.6498	6.145486	24.62640
442	14.33451	3.0812904	0.6496	6.144267	24.64179
443	14.34365	3.0788753	0.6586	6.144123	24.61468
444	14.34971	3.0742251	0.6677	6.145045	24.56982
445	14.35242	3.0717326	0.6768	6.145594	24.54612
446	14.35759	3.0708448	0.6889	6.145353	24.53502
447	14.35614	3.0710162	0.6948	6.145446	24.53745
448	14.34895	3.0736678	0.6736	6.145310	24.56538
449	14.34605	3.0764978	0.6616	6.144667	24.59218
450	14.34725	3.0784463	0.6585	6.143893	24.60861
451	14.34592	3.0780174	0.6553	6.144173	24.60567
452	14.34359	3.0766755	0.6553	6.144863	24.59531
453	14.34012	3.0774598	0.6674	6.144962	24.60443
454	14.33836	3.0764428	0.6764	6.145485	24.59657
455	14.33848	3.0730555	0.6734	6.146602	24.56661
456	14.33760	3.0720389	0.6793	6.147033	24.55820
457	14.33854	3.0752175	0.6761	6.145874	24.58564
458	14.34144	3.0785077	0.6671	6.144475	24.61283
459	14.34378	3.0769941	0.6670	6.144738	24.59800
460	14.34586	3.0732085	0.6611	6.145784	24.56329
461	14.34744	3.0726206	0.6579	6.145816	24.55711
462	14.34964	3.0767613	0.6638	6.144206	24.59223
463	14.35255	3.0796168	0.6730	6.142953	24.61557
464	14.35501	3.0776068	0.6821	6.143367	24.59628
465	14.35633	3.0724674	0.6850	6.144943	24.55013
466	14.35665	3.0687757	0.6728	6.146140	24.51738
467	14.34151	3.0668480	0.6578	6.148358	24.50996
468	14.31150	3.0717453	0.6457	6.149845	24.57214
469	14.28877	3.0806472	0.6333	6.149234	24.66519
470	14.28033	3.0872456	0.6516	6.147904	24.72887
471	14.30464	3.0884908	0.6788	6.144964	24.72437
472	14.34094	3.0788080	0.6908	6.144428	24.61579
473	14.36453	3.0731165	0.6939	6.143874	24.55066
474	14.37697	3.0749231	0.6727	6.141981	24.55872
475	14.37425	3.0820563	0.6605	6.139887	24.62332
476	14.37880	3.0857970	0.6544	6.138171	24.65342
477	14.38656	3.0832825	0.6694	6.138203	24.62632
478	14.38953	3.0761666	0.6785	6.140263	24.56173
479	14.38549	3.0720691	0.6725	6.142046	24.52819
480	14.37835	3.0749354	0.6634	6.141833	24.55796
481	14.36624	3.0821974	0.6481	6.140672	24.62965
482	14.36131	3.0870853	0.6450	6.139553	24.67589
483	14.36220	3.0879258	0.6722	6.139182	24.68273
484	14.36661	3.0809100	0.6813	6.141061	24.61805
485	14.36964	3.0757931	0.6721	6.142451	24.57102
486	14.37337	3.0781335	0.6601	6.141285	24.58930
487	14.36838	3.0865270	0.6478	6.139007	24.66647
488	14.36870	3.0918594	0.6508	6.137198	24.71330
489	14.38606	3.0956842	0.6871	6.134128	24.73597
490	14.41006	3.0960954	0.6961	6.131509	24.72431
491	14.42560	3.0866246	0.6809	6.133047	24.63101
492	14.43496	3.0791870	0.6688	6.134548	24.55961
493	14.43736	3.0826075	0.6204	6.133163	24.58821
494	14.42984	3.0948916	0.6021	6.129863	24.70115
495	14.43325	3.1038985	0.6353	6.126521	24.77832
496	14.44697	3.1071448	0.6658	6.124028	24.79816
497	14.46083	3.1057857	0.6868	6.123051	24.77735
498	14.46925	3.0936571	0.6988	6.126202	24.66523
499	14.47431	3.0868449	0.6897	6.127936	24.60210
500	14.47633	3.0875259	0.6687	6.127501	24.60681
501	14.46937	3.0937737	0.6686	6.126150	24.66619
502	14.46589	3.0965063	0.6775	6.125604	24.69244
503	14.46633	3.0924845	0.6806	6.126891	24.65677
504	14.46595	3.0851091	0.6623	6.129375	24.59213
505	14.46292	3.0809397	0.6471	6.131071	24.55738
506	14.44508	3.0831347	0.6260	6.132189	24.58797
507	14.41619	3.0977168	0.6561	6.130336	24.73471
508	14.40576	3.1056387	0.7470	6.128782	24.81117
509	14.42573	3.1090332	0.8743	6.125595	24.82830
510	14.45090	3.1097281	0.9982	6.122771	24.81831
511	14.46943	3.1090328	1.1164	6.121092	24.80032
512	14.48171	3.1102139	1.2315	6.119438	24.80285
513	14.48963	3.1107552	1.3736	6.118445	24.80252
514	14.49476	3.1110075	1.5340	6.117836	24.80142
515	14.49831	3.1113643	1.7188	6.117355	24.80225
516	14.50071	3.1110690	1.8763	6.117206	24.79807
517	14.50293	3.1111860	2.0490	6.116942	24.79763
518	14.50508	3.1109829	2.2032	6.116789	24.79442
519	14.50673	3.1110076	2.3728	6.116613	24.79354
520	14.50927	3.1108846	2.5756	6.116395	24.79078
521	14.51275	3.1111307	2.7695	6.115958	24.79066
522	14.51573	3.1114507	2.9815	6.115548	24.79152
523	14.51706	3.1118815	3.1903	6.115271	24.79439
524	14.51788	3.1119861	3.4114	6.115154	24.79472
525	14.51877	3.1123431	3.6203	6.114947	24.79723
526	14.51947	3.1123800	3.8354	6.114866	24.79705
527	14.52010	3.1125770	4.0533	6.114738	24.79831
528	14.52080	3.1125771	4.2773	6.114669	24.79780
529	14.52112	3.1126018	4.4984	6.114631	24.79774
530	14.52118	3.1127864	4.7194	6.114566	24.79926
531	14.52105	3.1130511	4.9556	6.114494	24.80160
532	14.52048	3.1130697	5.1797	6.114549	24.80205
533	14.51985	3.1137590	5.4187	6.114389	24.80845
534	14.51902	3.1135806	5.6460	6.114536	24.80733
535	14.51807	3.1138207	5.8609	6.114556	24.80999
536	14.51712	3.1135685	6.0758	6.114740	24.80831
537	14.51605	3.1143502	6.3060	6.114595	24.81580
538	14.51389	3.1165110	6.5150	6.114105	24.83612
539	14.50889	3.1208220	6.7390	6.113197	24.87718
540	14.50052	3.1270769	6.9751	6.111990	24.93752
541	14.48754	3.1315662	7.2294	6.111840	24.98531
542	14.46893	3.1326089	7.4475	6.113407	25.00639
543	14.45020	3.1338801	7.6746	6.114911	25.02958
544	14.43180	3.1343677	7.9017	6.116642	25.04567
545	14.41429	3.1349974	8.1198	6.118234	25.06244
546	14.39919	3.1357689	8.3376	6.119532	25.07893
547	14.37425	3.1388554	8.5677	6.121071	25.12225
548	14.33659	3.1412639	8.7887	6.124144	25.16788
549	14.30155	3.1430862	9.0008	6.127142	25.20670
550	14.27265	3.1457491	9.2188	6.129229	25.24903
551	14.23070	3.1587164	9.4550	6.129206	25.39141
552	14.15904	3.1690706	9.6728	6.133101	25.53050
553	14.08521	3.1757534	9.8969	6.138446	25.63882
554	14.01135	3.1851790	10.1332	6.142863	25.77208
555	13.90443	3.1995704	10.3632	6.148984	25.97262
556	13.72678	3.2136385	10.5872	6.162482	26.21958
557	13.54669	3.2206700	10.8173	6.178665	26.40661
558	13.40261	3.2279378	11.0415	6.191066	26.57229
559	13.27275	3.2366108	11.2746	6.201511	26.74197
560	13.15299	3.2421482	11.4864	6.212015	26.87684
561	13.05570	3.2445060	11.6953	6.221318	26.96728
562	12.97652	3.2466141	11.9166	6.228835	27.04290
563	12.91011	3.2476092	12.1345	6.235423	27.09939
564	12.85120	3.2475787	12.3615	6.241603	27.14119
565	12.79342	3.2467413	12.5824	6.247964	27.17481
566	12.68017	3.2500640	12.8035	6.258660	27.28710
567	12.43940	3.2544783	13.0366	6.282428	27.50309
568	12.19118	3.2545436	13.2607	6.308707	27.68600
569	11.98536	3.2550717	13.4939	6.330436	27.84362
570	11.79497	3.2545793	13.7178	6.351001	27.98134
571	11.61829	3.2567285	13.9419	6.369172	28.13504
572	11.44461	3.2585025	14.1570	6.387229	28.28407
573	11.24677	3.2619059	14.3961	6.407337	28.46860
574	11.01766	3.2653360	14.6171	6.430914	28.67944
575	10.81884	3.2660276	14.8381	6.452366	28.84182
576	10.66929	3.2675275	15.0592	6.468172	28.97451
577	10.56489	3.2672466	15.2802	6.479771	29.05456
578	10.48761	3.2687521	15.5072	6.487682	29.13093
579	10.43384	3.2668782	15.7282	6.494380	29.15534
580	10.39067	3.2679758	15.9432	6.498707	29.20069
581	10.35734	3.2675312	16.1671	6.502579	29.22296
582	10.28297	3.2676260	16.3731	6.510779	29.28365
583	10.13039	3.2666937	16.5850	6.528107	29.39764
584	9.95803	3.2668209	16.7939	6.547267	29.53913
585	9.81622	3.2650737	17.0059	6.563866	29.63774
586	9.70022	3.2642603	17.2360	6.577231	29.72502
587	9.60791	3.2647627	17.4478	6.587406	29.80639
588	9.54073	3.2657287	17.6868	6.594570	29.87186
589	9.48695	3.2695724	17.9324	6.599002	29.95556
590	9.39685	3.2684824	18.1564	6.609647	30.01977
591	9.24933	3.2578132	18.3835	6.630970	30.03478
592	9.06842	3.2511926	18.6074	6.654472	30.11944
593	8.90039	3.2491111	18.8407	6.674636	30.24048
594	8.77518	3.2506014	19.0525	6.688370	30.36267
595	8.69062	3.2494888	19.2796	6.698610	30.42360
596	8.63436	3.2501088	19.4854	6.704829	30.47835
597	8.59212	3.2496401	19.6975	6.709921	30.50981
598	8.55382	3.2495780	19.9123	6.714381	30.54216
599	8.51701	3.2491155	20.1242	6.718852	30.56910
600	8.48422	3.2481526	20.3453	6.723087	30.58738
601	8.44914	3.2480342	20.5542	6.727210	30.61648
602	8.41517	3.2476281	20.7691	6.731339	30.64165
603	8.38736	3.2474408	20.9871	6.734657	30.66379
604	8.36162	3.2474412	21.2172	6.737653	30.68612
605	8.34093	3.2472851	21.4351	6.740132	30.70242
606	8.32160	3.2475043	21.6773	6.742285	30.72148
607	8.30464	3.2486241	21.8894	6.743753	30.74794
608	8.28672	3.2480302	22.1316	6.746113	30.75727
609	8.26817	3.2504827	22.3345	6.747160	30.79915
610	8.24689	3.2487438	22.5492	6.750434	30.79945
611	8.22337	3.2493071	22.7732	6.752921	30.82588
612	8.20512	3.2500518	22.9792	6.754712	30.84965
613	8.18815	3.2492763	23.1882	6.757049	30.85630
614	8.17381	3.2500523	23.3908	6.758370	30.87698
615	8.16403	3.2484072	23.5998	6.760269	30.86818
616	8.15387	3.2481572	23.8117	6.761573	30.87439
617	8.14633	3.2466688	24.0206	6.763139	30.86526
618	8.13757	3.2470442	24.2446	6.763995	30.87683
619	8.12864	3.2474447	24.4596	6.764858	30.88880
620	8.11801	3.2468257	24.6836	6.766388	30.89155
621	8.10829	3.2476014	24.8895	6.767172	30.90819
622	8.09852	3.2468260	25.1165	6.768675	30.90853
623	8.09004	3.2470451	25.3253	6.769570	30.91823
624	8.08358	3.2463323	25.5403	6.770657	30.91631
625	8.07493	3.2454320	25.7736	6.772087	30.91434
626	8.07040	3.2478836	25.9793	6.771494	30.94412
627	8.06224	3.2470456	26.1883	6.772838	30.94239
628	8.04715	3.2468270	26.3970	6.774709	30.95331
629	8.02961	3.2467334	26.6091	6.776809	30.96773
630	8.01107	3.2470776	26.8180	6.778826	30.98768
631	7.99243	3.2466714	27.0420	6.781202	30.99979
632	7.97646	3.2469218	27.2419	6.782962	31.01650
633	7.96358	3.2463341	27.4628	6.784748	31.02160
634	7.95342	3.2464844	27.6837	6.785875	31.03210
635	7.94448	3.2455903	27.9168	6.787342	31.03046
636	7.93337	3.2465473	28.1621	6.788207	31.05035
637	7.91774	3.2504257	28.3650	6.788246	31.10524
638	7.90122	3.2488745	28.5862	6.790909	31.10340
639	7.89118	3.2502760	28.8009	6.791440	31.12711
640	7.88805	3.2518904	29.0127	6.791062	31.14693
641	7.88295	3.2508643	29.2370	6.792142	31.14049
642	7.87753	3.2511773	29.4577	6.792636	31.14854
643	7.87429	3.2522286	29.6700	6.792532	31.16249
644	7.87148	3.2529484	29.8907	6.792531	31.17254
645	7.86792	3.2526982	30.0935	6.793069	31.17297
646	7.85864	3.2529362	30.3056	6.794053	31.18369
647	7.84856	3.2528237	30.5084	6.795293	31.19141
648	7.84044	3.2533808	30.7202	6.795990	31.20449
649	7.83556	3.2536626	30.9322	6.796436	31.21175
650	7.83227	3.2543763	31.1412	6.796494	31.22218
651	7.83010	3.2541573	31.3470	6.796855	31.22170
652	7.82745	3.2539133	31.5650	6.797285	31.22138
653	7.82681	3.2538194	31.7861	6.797408	31.22085
654	7.82548	3.2542201	32.0130	6.797381	31.22620
655	7.82538	3.2547209	32.2219	6.797164	31.23152
656	7.82559	3.2554660	32.4247	6.796796	31.23916
657	7.82432	3.2554034	32.6307	6.796978	31.23954
658	7.82591	3.2570250	32.8425	6.796040	31.25526
659	7.84134	3.2620105	33.0574	6.791911	31.29433
660	7.86432	3.2665036	33.2753	6.787133	31.32138
661	7.87621	3.2689109	33.4903	6.784627	31.33619
662	7.87838	3.2703156	33.6933	6.783723	31.34906
663	7.87451	3.2699395	33.8930	6.784355	31.34846
664	7.86877	3.2699082	34.1200	6.785045	31.35317
665	7.86777	3.2708804	34.3320	6.784715	31.36430
666	7.86787	3.2721411	34.5498	6.784121	31.37751
667	7.86665	3.2727559	34.7771	6.783982	31.38503
668	7.86570	3.2738539	34.9739	6.783587	31.39747
669	7.85673	3.2721289	35.1979	6.785442	31.38710
670	7.84134	3.2720037	35.4189	6.787304	31.39950
671	7.82649	3.2718157	35.6429	6.789133	31.41076
672	7.81091	3.2717219	35.8639	6.791005	31.42369
673	7.80078	3.2725689	36.0668	6.791799	31.44173
674	7.79321	3.2727572	36.2667	6.792602	31.45048
675	7.78611	3.2720046	36.4724	6.793789	31.44877
676	7.78023	3.2717852	36.6873	6.794584	31.45163
677	7.77668	3.2715971	36.9055	6.795092	31.45273
678	7.77430	3.2714404	37.1203	6.795448	31.45311
679	7.77255	3.2713715	37.3263	6.795689	31.45386
680	7.76567	3.2706002	37.5411	6.796861	31.45176
681	7.75614	3.2699419	37.7742	6.798290	31.45323
682	7.74624	3.2692210	38.0195	6.799793	31.45436
683	7.73587	3.2681616	38.3132	6.801511	31.45229
684	7.72682	3.2697544	38.5342	6.801831	31.47735
685	7.71667	3.2708206	38.7310	6.802527	31.49781
686	7.70742	3.2689771	38.9521	6.804481	31.48640
687	7.70192	3.2693786	39.1609	6.804942	31.49556
688	7.69885	3.2695668	39.3698	6.805218	31.50024
689	7.69404	3.2690339	39.5877	6.806037	31.49881
690	7.68923	3.2687268	39.7937	6.806750	31.49978
691	7.68506	3.2689150	39.9966	6.807156	31.50548
692	7.68152	3.2685515	40.2115	6.807747	31.50470
693	7.67898	3.2682882	40.4477	6.808173	31.50407
694	7.67708	3.2684451	40.6625	6.808327	31.50737
695	7.67428	3.2681630	40.8685	6.808793	31.50680
696	7.66995	3.2677243	41.0836	6.809512	31.50593
697	7.66678	3.2673482	41.2985	6.810066	31.50468
698	7.66329	3.2672229	41.5104	6.810539	31.50640
699	7.65712	3.2667592	41.7224	6.811487	31.50694
700	7.64793	3.2657564	41.9404	6.813044	31.50444
701	7.63700	3.2650108	42.1553	6.814684	31.50626
702	7.62328	3.2630119	42.3733	6.817245	31.49721
703	7.59876	3.2597045	42.5851	6.821699	31.48393
704	7.56724	3.2580265	42.8094	6.826213	31.49441
705	7.54001	3.2570626	43.0212	6.829889	31.50867
706	7.51932	3.2577141	43.2330	6.832028	31.53433
707	7.50843	3.2593049	43.4452	6.832565	31.56119
708	7.50775	3.2611716	43.6662	6.831766	31.58174
709	7.51054	3.2624121	43.8841	6.830853	31.59241
710	7.51206	3.2627004	44.0960	6.830540	31.59402
711	7.50686	3.2622055	44.3048	6.831394	31.59335
712	7.49770	3.2612346	44.5168	6.832940	31.59116
713	7.48561	3.2608903	44.7318	6.834536	31.59838
714	7.47777	3.2627010	44.9407	6.834606	31.62486
715	7.47604	3.2636096	45.1588	6.834384	31.63610
716	7.47604	3.2637914	45.3707	6.834302	31.63795
717	7.47735	3.2640422	45.5917	6.834032	31.63935
718	7.47830	3.2642615	45.7855	6.833820	31.64075
719	7.47688	3.2641676	46.0006	6.834037	31.64094
720	7.47488	3.2644810	46.2033	6.834128	31.64603
721	7.47415	3.2644184	46.4032	6.834249	31.64594
722	7.47357	3.2641679	46.6152	6.834441	31.64368
723	7.47325	3.2639799	46.8301	6.834571	31.64185
724	7.47262	3.2640113	47.0359	6.834635	31.64267
725	7.47084	3.2636104	47.2541	6.835041	31.63989
726	7.46836	3.2635979	47.4627	6.835343	31.64191
727	7.46469	3.2633912	47.6749	6.835880	31.64295
728	7.46095	3.2628901	47.9049	6.836564	31.64086
729	7.45775	3.2631095	48.1320	6.836843	31.64603
730	7.45554	3.2633289	48.3409	6.837004	31.65031
731	7.45286	3.2630157	48.5589	6.837474	31.64929
732	7.45029	3.2630784	48.7709	6.837753	31.65221
733	7.44903	3.2634858	48.9679	6.837712	31.65765
734	7.44777	3.2628593	49.1796	6.838163	31.65197
735	7.44666	3.2631100	49.3977	6.838179	31.65557
736	7.44672	3.2631727	49.6036	6.838147	31.65610
737	7.44577	3.2629535	49.8186	6.838367	31.65451
738	7.44514	3.2626090	50.0365	6.838610	31.65128
739	7.44509	3.2631416	50.2486	6.838367	31.65696
740	7.44404	3.2630164	50.4696	6.838556	31.65647
741	7.44246	3.2630478	50.6875	6.838732	31.65814
742	7.44120	3.2632985	50.9026	6.838766	31.66189
743	7.43747	3.2632360	51.1295	6.839241	31.66452
744	7.43290	3.2631296	51.3507	6.839836	31.66744
745	7.42855	3.2632049	51.5627	6.840320	31.67213
746	7.42340	3.2628917	51.7868	6.841082	31.67336
747	7.41857	3.2626725	51.9956	6.841762	31.67532
748	7.41280	3.2626100	52.2047	6.842479	31.67982
749	7.40645	3.2622342	52.4194	6.843414	31.68148
750	7.39973	3.2619273	52.6374	6.844360	31.68422
751	7.39307	3.2615516	52.8616	6.845333	31.68616
752	7.38667	3.2613011	53.0888	6.846214	31.68921
753	7.38184	3.2612073	53.3067	6.846835	31.69251
754	7.37801	3.2610195	53.5307	6.847383	31.69389
755	7.37309	3.2606187	53.7548	6.848163	31.69398
756	7.36779	3.2603369	53.9759	6.848929	31.69568
757	7.36297	3.2603057	54.2001	6.849520	31.69966
758	7.35856	3.2600553	54.4149	6.850166	31.70089
759	7.35437	3.2599301	54.6330	6.850727	31.70328
760	7.35018	3.2598363	54.8570	6.851274	31.70600
761	7.34620	3.2595608	55.0842	6.851882	31.70657
762	7.34054	3.2592478	55.3021	6.852708	31.70828
763	7.33304	3.2588095	55.5262	6.853810	31.71031
764	7.32383	3.2586218	55.7503	6.854998	31.71662
765	7.31492	3.2587472	55.9591	6.855999	31.72603
766	7.30681	3.2585595	56.1651	6.857056	31.73135
767	7.30011	3.2582215	56.3829	6.858018	31.73375
768	7.29472	3.2580024	56.6163	6.858768	31.73622
769	7.29048	3.2576894	56.8373	6.859426	31.73662
770	7.28394	3.2569757	57.0583	6.860550	31.73481
771	7.27484	3.2566628	57.2826	6.861786	31.73968
772	7.26636	3.2562873	57.5034	6.862978	31.74330
773	7.25925	3.2556364	57.7489	6.864141	31.74268
774	7.25251	3.2549542	58.0212	6.865277	31.74137
775	7.24550	3.2555741	58.2453	6.865817	31.75440
776	7.23819	3.2556368	58.4573	6.866661	31.76170
777	7.23202	3.2551988	58.6906	6.867610	31.76252
778	7.22904	3.2554493	58.9053	6.867848	31.76786
779	7.22768	3.2553867	59.1296	6.868045	31.76833
780	7.22585	3.2548610	59.3626	6.868520	31.76422
781	7.22418	3.2548611	59.5866	6.868724	31.76565
782	7.22047	3.2548299	59.8107	6.869185	31.76862
783	7.21650	3.2545170	60.0379	6.869813	31.76878
784	7.21379	3.2542980	60.2711	6.870246	31.76880
785	7.21060	3.2541730	60.4921	6.870691	31.77027
786	7.20653	3.2538038	60.7374	6.871359	31.76991
787	7.20287	3.2537538	60.9585	6.871823	31.77263
788	7.20047	3.2538979	61.1915	6.872044	31.77628
789	7.19859	3.2537102	61.4216	6.872363	31.77588
790	7.19786	3.2536790	61.6549	6.872470	31.77610
791	7.19697	3.2533661	61.8790	6.872731	31.77343
792	7.19452	3.2533349	62.1090	6.873043	31.77524
793	7.19222	3.2534289	62.3362	6.873276	31.77826
794	7.18940	3.2533351	62.5573	6.873662	31.77974
795	7.18690	3.2529034	62.7873	6.874173	31.77726
796	7.18559	3.2529660	63.0144	6.874303	31.77904
797	7.18491	3.2531226	63.2324	6.874313	31.78125
798	7.18455	3.2529975	63.4505	6.874422	31.78014
799	7.18361	3.2526221	63.6837	6.874720	31.77683
800	7.18105	3.2524344	63.9139	6.875120	31.77704
801	7.17755	3.2520340	64.1560	6.875735	31.77581
802	7.16816	3.2508516	64.3923	6.877430	31.77154
803	7.15580	3.2503575	64.6191	6.879148	31.77745
804	7.14130	3.2489877	64.8615	6.881546	31.77584
805	7.12243	3.2482436	65.0917	6.884164	31.78504
806	7.10722	3.2482125	65.3249	6.886001	31.79861
807	7.09691	3.2483065	65.5397	6.887193	31.80904
808	7.08993	3.2481503	65.7698	6.888108	31.81367
809	7.08540	3.2481504	65.9911	6.888654	31.81775
810	7.08222	3.2481505	66.2181	6.889038	31.82057
811	7.07920	3.2480255	66.4300	6.889464	31.82190
812	7.07582	3.2476566	66.6510	6.890052	31.82092
813	7.07311	3.2475629	66.8873	6.890426	31.82229
814	7.07014	3.2475317	67.1052	6.890801	31.82459
815	7.06754	3.2475631	67.3294	6.891102	31.82722
816	7.06536	3.2474068	67.5596	6.891444	31.82744
817	7.06400	3.2473443	67.7896	6.891641	31.82790
818	7.06234	3.2471568	68.0319	6.891936	31.82729
819	7.06156	3.2466941	68.3045	6.892260	31.82286
820	7.06171	3.2468505	68.5559	6.892171	31.82429
821	7.06083	3.2474698	68.7557	6.891980	31.83174
822	7.05875	3.2471571	68.9706	6.892385	31.83017
823	7.05724	3.2469446	69.2008	6.892674	31.82914
824	7.05719	3.2469447	69.4338	6.892685	31.82908
825	7.05729	3.2468509	69.6549	6.892723	31.82787
826	7.05625	3.2466759	69.8730	6.892937	31.82683
827	7.05453	3.2463821	70.1153	6.893290	31.82511
828	7.05198	3.2461695	70.3333	6.893703	31.82505
829	7.04902	3.2462009	70.5635	6.894047	31.82802
830	7.04626	3.2460759	70.7874	6.894443	31.82910
831	7.04371	3.2459822	71.0085	6.894798	31.83034
832	7.04174	3.2459198	71.2297	6.895070	31.83138
833	7.03986	3.2457636	71.4445	6.895374	31.83131
834	7.03862	3.2456136	71.6747	6.895602	31.83073
835	7.03633	3.2451760	71.9018	6.896093	31.82798
836	7.03274	3.2448697	72.1290	6.896677	31.82786
837	7.02790	3.2447135	72.3440	6.897336	31.83052
838	7.02068	3.2439697	72.5680	6.898569	31.82901
839	7.01085	3.2432259	72.7890	6.900113	31.82989
840	7.00145	3.2429760	73.0101	6.901367	31.83576
841	6.99199	3.2427011	73.2220	6.902640	31.84142
842	6.98316	3.2423575	73.4401	6.903871	31.84574
843	6.97496	3.2420201	73.6612	6.905025	31.84955
844	6.96758	3.2416140	73.8883	6.906113	31.85185
845	6.96141	3.2413392	74.1126	6.906993	31.85446
846	6.95559	3.2411831	74.3395	6.907773	31.85804
847	6.95040	3.2411832	74.5483	6.908400	31.86275
848	6.94630	3.2410583	74.7695	6.908958	31.86508
849	6.94272	3.2409022	74.9935	6.909469	31.86659
850	6.94054	3.2409647	75.2087	6.909705	31.86919
851	6.93914	3.2409023	75.4327	6.909908	31.86970
852	6.93800	3.2407149	75.6628	6.910142	31.86860
853	6.93800	3.2407775	75.8806	6.910116	31.86918
854	6.93774	3.2407151	76.1050	6.910182	31.86864
855	6.93764	3.2406901	76.3321	6.910212	31.86836
856	6.93722	3.2408714	76.5351	6.910177	31.87062
857	6.93691	3.2407778	76.7439	6.910265	31.86979
858	6.93650	3.2406279	76.9680	6.910393	31.86844
859	6.93650	3.2406279	77.1890	6.910397	31.86834
860	6.93686	3.2406280	77.4070	6.910358	31.86790
861	6.93624	3.2405968	77.6129	6.910453	31.86804
862	6.93593	3.2404719	77.8371	6.910556	31.86686
863	6.93603	3.2404407	78.0671	6.910563	31.86632
864	6.93634	3.2402533	78.3002	6.910623	31.86388
865	6.93665	3.2398222	78.5850	6.910802	31.85876
866	6.93702	3.2398536	78.8484	6.910749	31.85864
867	6.93624	3.2402848	79.0663	6.910636	31.86396
868	6.93494	3.2402849	79.2785	6.910796	31.86506
869	6.93333	3.2400100	79.5085	6.911129	31.86345
870	6.93100	3.2396977	79.7267	6.911566	31.86210
871	6.92664	3.2395416	79.9537	6.912171	31.86433
872	6.92140	3.2393917	80.1689	6.912879	31.86745
873	6.91611	3.2390482	80.3898	6.913688	31.86850
874	6.91036	3.2388921	80.6140	6.914461	31.87203
875	6.90517	3.2388923	80.8348	6.915089	31.87673
876	6.90118	3.2387424	81.0621	6.915647	31.87869
877	6.89797	3.2387113	81.2861	6.916054	31.88122
878	6.89543	3.2386489	81.5070	6.916395	31.88279
879	6.89336	3.2385865	81.7312	6.916679	31.88393
880	6.89128	3.2385241	81.9585	6.916964	31.88506
881	6.88864	3.2385242	82.1915	6.917287	31.88740
882	6.88600	3.2389554	82.4125	6.917398	31.89446
883	6.88372	3.2394804	82.6246	6.917420	31.90220
884	6.88268	3.2400991	82.8517	6.917246	31.90980
885	6.88387	3.2409365	83.0728	6.916696	31.91773
886	6.88564	3.2414303	83.2907	6.916247	31.92138
887	6.88605	3.2416491	83.5057	6.916094	31.92328
888	6.88615	3.2417430	83.7270	6.916041	31.92411
889	6.88621	3.2418680	83.9509	6.915978	31.92532
890	6.88646	3.2420244	84.1749	6.915875	31.92668
891	6.88584	3.2419619	84.3960	6.915985	31.92647
892	6.88470	3.2418370	84.6172	6.916188	31.92606
893	6.88351	3.2418371	84.8412	6.916336	31.92707
894	6.88206	3.2418059	85.0715	6.916530	31.92797
895	6.88066	3.2418373	85.3015	6.916688	31.92950
896	6.87973	3.2418998	85.5256	6.916774	31.93094
897	6.87931	3.2418999	85.7436	6.916829	31.93123
898	6.87942	3.2419625	85.9647	6.916790	31.93171
899	6.87900	3.2419626	86.1886	6.916845	31.93199
900	6.87859	3.2419939	86.4219	6.916884	31.93261
901	6.87797	3.2420252	86.6367	6.916948	31.93342
902	6.87740	3.2420565	86.8428	6.917006	31.93420
903	6.87698	3.2420566	87.0759	6.917060	31.93448
904	6.87729	3.2421129	87.3032	6.917000	31.93469
905	6.87823	3.2423005	87.5181	6.916801	31.93577
906	6.87926	3.2423943	87.7393	6.916635	31.93573
907	6.88004	3.2425507	87.9603	6.916469	31.93661
908	6.88092	3.2426445	88.1843	6.916322	31.93671
909	6.88180	3.2426445	88.4054	6.916221	31.93579
910	6.88232	3.2423946	88.6869	6.916287	31.93245
911	6.88341	3.2424259	88.9413	6.916146	31.93166
912	6.88310	3.2427073	89.1503	6.916050	31.93492
913	6.88196	3.2427386	89.3564	6.916176	31.93623
914	6.88123	3.2426762	89.5771	6.916298	31.93612
915	6.88180	3.2427950	89.7983	6.916176	31.93678
916	6.88253	3.2427638	90.0194	6.916109	31.93566
917	6.88258	3.2427076	90.2405	6.916135	31.93490
918	6.88299	3.2427639	90.4705	6.916062	31.93502
919	6.88341	3.2428265	90.6946	6.915987	31.93521
920	6.88408	3.2430141	90.9218	6.915818	31.93653
921	6.88450	3.2430767	91.1307	6.915742	31.93673
922	6.88548	3.2432643	91.3426	6.915536	31.93776
923	6.88683	3.2433581	91.5638	6.915333	31.93743
924	6.88802	3.2434207	91.7819	6.915164	31.93690
925	6.88864	3.2434770	92.0090	6.915066	31.93683
926	6.88916	3.2435083	92.2208	6.914993	31.93659
927	6.88926	3.2435396	92.4419	6.914970	31.93674
928	6.88947	3.2435710	92.6661	6.914934	31.93678
929	6.89020	3.2436023	92.8931	6.914836	31.93634
930	6.89061	3.2436336	93.1142	6.914776	31.93619
931	6.89118	3.2436337	93.3291	6.914712	31.93557
932	6.89154	3.2436962	93.5502	6.914642	31.93581
933	6.89159	3.2437276	93.7773	6.914625	31.93599
934	6.89128	3.2436964	94.0014	6.914683	31.93584
935	6.89102	3.2436652	94.2255	6.914734	31.93563
936	6.89123	3.2437590	94.4284	6.914667	31.93637
937	6.89134	3.2437278	94.6555	6.914675	31.93583
938	6.89097	3.2438217	94.8767	6.914677	31.93708
939	6.89061	3.2438843	95.1038	6.914695	31.93800
940	6.89014	3.2440094	95.3248	6.914694	31.93969
941	6.88957	3.2440407	95.5399	6.914752	31.94046
942	6.88859	3.2441033	95.7546	6.914844	31.94196
943	6.88719	3.2441909	95.9788	6.914974	31.94411
944	6.88584	3.2442223	96.1969	6.915125	31.94560
945	6.88496	3.2443474	96.4211	6.915175	31.94768
946	6.88408	3.2443475	96.6362	6.915285	31.94840
947	6.88346	3.2443788	96.8481	6.915349	31.94922
948	6.88294	3.2443789	97.0720	6.915416	31.94959
949	6.88222	3.2444727	97.2932	6.915462	31.95119
950	6.88165	3.2445041	97.5021	6.915519	31.95196
951	6.88097	3.2444729	97.7200	6.915620	31.95214
952	6.88051	3.2445667	97.9290	6.915635	31.95350
953	6.88014	3.2446293	98.1470	6.915652	31.95442
954	6.87957	3.2445669	98.3622	6.915756	31.95417
955	6.87942	3.2445044	98.5922	6.915810	31.95352
956	6.87931	3.2444420	98.8526	6.915859	31.95282
957	6.87921	3.2445671	99.0736	6.915814	31.95417
958	6.87869	3.2446297	99.2798	6.915850	31.95524
959	6.87792	3.2445673	99.5036	6.915979	31.95518
960	6.87714	3.2445361	99.7279	6.916092	31.95545
961	6.87652	3.2445674	99.9458	6.916156	31.95627
962	6.87558	3.2445988	100.1639	6.916258	31.95738
963	6.87434	3.2445988	100.3697	6.916412	31.95844
964	6.87294	3.2445989	100.5877	6.916584	31.95964
965	6.87191	3.2446303	100.8121	6.916698	31.96083
966	6.87123	3.2446616	101.0363	6.916769	31.96170
967	6.87015	3.2446304	101.2450	6.916919	31.96227
968	6.86901	3.2446617	101.4568	6.917045	31.96357
969	6.86807	3.2446618	101.6808	6.917162	31.96433
970	6.86688	3.2446306	101.8958	6.917325	31.96500
971	6.86595	3.2446307	102.1260	6.917442	31.96576
972	6.86528	3.2446933	102.3441	6.917497	31.96697
973	6.86435	3.2447872	102.5501	6.917567	31.96876
974	6.86378	3.2448185	102.7620	6.917625	31.96953
975	6.86357	3.2447561	102.9739	6.917685	31.96895
976	6.86326	3.2447561	103.2041	6.917727	31.96913
977	6.86321	3.2447875	103.4101	6.917722	31.96942
978	6.86300	3.2448188	103.6159	6.917736	31.96986
979	6.86258	3.2447876	103.8373	6.917806	31.96980
980	6.86227	3.2447564	104.0581	6.917863	31.96964
981	6.86233	3.2446940	104.2821	6.917892	31.96881
982	6.86248	3.2447566	104.4880	6.917847	31.96925
983	6.86248	3.2447566	104.7123	6.917852	31.96915
984	6.86227	3.2448192	104.9273	6.917851	31.96992
985	6.86217	3.2447880	105.1513	6.917883	31.96957
986	6.86217	3.2447881	105.3631	6.917888	31.96947
987	6.86217	3.2447256	105.5844	6.917923	31.96869
988	6.86207	3.2447570	105.8145	6.917925	31.96902
989	6.86233	3.2448196	106.0265	6.917868	31.96936
990	6.86227	3.2447884	106.2413	6.917894	31.96897
991	6.86196	3.2448197	106.4626	6.917920	31.96950
992	6.86176	3.2448198	106.6744	6.917950	31.96959
993	6.86186	3.2449074	106.8866	6.917899	31.97035
994	6.86176	3.2448824	107.0892	6.917928	31.97008
995	6.86181	3.2448512	107.3165	6.917942	31.96958
996	6.86207	3.2449388	107.5437	6.917872	31.97019
997	6.86233	3.2449702	107.7646	6.917830	31.97019
998	6.86222	3.2450015	107.9857	6.917832	31.97052
999	6.86212	3.2450016	108.1947	6.917849	31.97052
1000	6.86238	3.2450329	108.4036	6.917807	31.97053
1001	6.86248	3.2449704	108.6307	6.917830	31.96964
1002	6.86243	3.2449392	108.8912	6.917857	31.96923
1003	6.86274	3.2450331	109.1271	6.917778	31.96985
1004	6.86253	3.2451270	109.3271	6.917762	31.97098
1005	6.86212	3.2451270	109.5359	6.917816	31.97126
1006	6.86134	3.2450646	109.7755	6.917945	31.97119
1007	6.86098	3.2450647	109.9962	6.917993	31.97143
1008	6.86088	3.2451585	110.2173	6.917964	31.97244
1009	6.86041	3.2451586	110.4322	6.918025	31.97278
1010	6.85994	3.2451274	110.6505	6.918101	31.97277
1011	6.85989	3.2451275	110.8775	6.918112	31.97271
1012	6.85963	3.2451275	111.0895	6.918147	31.97285
1013	6.85927	3.2451589	111.2984	6.918180	31.97343
1014	6.85875	3.2451277	111.5255	6.918262	31.97347
1015	6.85839	3.2450965	111.7406	6.918326	31.97336
1016	6.85823	3.2451278	111.9584	6.918334	31.97375
1017	6.85813	3.2451279	112.1795	6.918351	31.97374
1018	6.85792	3.2450967	112.3915	6.918395	31.97349
1019	6.85787	3.2451593	112.6095	6.918375	31.97412
1020	6.85767	3.2451594	112.8277	6.918405	31.97421
1021	6.85746	3.2451282	113.0487	6.918450	31.97396
1022	6.85699	3.2451282	113.2576	6.918510	31.97430
1023	6.85632	3.2450345	113.4758	6.918642	31.97380
1024	6.85554	3.2449408	113.6967	6.918786	31.97339
1025	6.85461	3.2449096	113.9117	6.918918	31.97382
1026	6.85357	3.2448534	114.1327	6.919075	31.97406
1027	6.85280	3.2448535	114.3478	6.919173	31.97469
1028	6.85197	3.2447911	114.5629	6.919308	31.97467
1029	6.85135	3.2447599	114.7807	6.919402	31.97481
1030	6.85099	3.2447287	114.9987	6.919466	31.97470
1031	6.85073	3.2447913	115.2135	6.919471	31.97553
1032	6.85052	3.2447914	115.4350	6.919500	31.97562
1033	6.85036	3.2447602	115.6619	6.919539	31.97531
1034	6.85047	3.2447915	115.8831	6.919516	31.97546
1035	6.85036	3.2448103	116.1009	6.919524	31.97566
1036	6.85026	3.2448229	116.3130	6.919534	31.97579
1037	6.84985	3.2448230	116.5248	6.919589	31.97608
1038	6.84964	3.2448230	116.7398	6.919618	31.97617
1039	6.84980	3.2448856	116.9517	6.919573	31.97661
1040	6.84985	3.2448544	117.1637	6.919587	31.97612
1041	6.84980	3.2448858	117.3668	6.919582	31.97641
1042	6.84938	3.2448546	117.5815	6.919652	31.97636
1043	6.84938	3.2448546	117.7998	6.919656	31.97626
1044	6.84907	3.2448234	118.0116	6.919713	31.97611
1045	6.84866	3.2448235	118.2298	6.919768	31.97639
1046	6.84845	3.2447923	118.4539	6.919813	31.97614
1047	6.84804	3.2446986	118.7292	6.919914	31.97537
1048	6.84793	3.2446049	118.9928	6.919978	31.97432
1049	6.84684	3.2446675	119.2047	6.920083	31.97591
1050	6.84586	3.2446676	119.4136	6.920206	31.97673
1051	6.84483	3.2446677	119.6074	6.920334	31.97760
1052	6.84436	3.2446678	119.8374	6.920395	31.97793
1053	6.84420	3.2446678	120.0556	6.920418	31.97797
1054	6.84441	3.2446992	120.2796	6.920383	31.97802
1055	6.84436	3.2446992	120.4945	6.920394	31.97797
1056	6.84420	3.2447305	120.7005	6.920401	31.97836
1057	6.84379	3.2446994	120.9154	6.920471	31.97830
1058	6.84395	3.2446994	121.1396	6.920457	31.97805
1059	6.84415	3.2447308	121.3699	6.920421	31.97809
1060	6.84410	3.2447308	121.5878	6.920432	31.97804
1061	6.84405	3.2447934	121.8089	6.920412	31.97867
1062	6.84400	3.2448560	122.0177	6.920392	31.97930
1063	6.84389	3.2448561	122.2268	6.920409	31.97930
1064	6.84415	3.2448874	122.4479	6.920367	31.97930
1065	6.84405	3.2448875	122.6629	6.920384	31.97929
1066	6.84426	3.2449438	122.8746	6.920336	31.97962
1067	6.84426	3.2449751	123.0897	6.920325	31.97986
1068	6.84441	3.2450065	123.3048	6.920296	31.97995
1069	6.84467	3.2450691	123.5287	6.920239	31.98029
1070	6.84529	3.2450691	123.7466	6.920168	31.97961
1071	6.84545	3.2450692	123.9586	6.920154	31.97937
1072	6.84534	3.2450380	124.1798	6.920187	31.97902
1073	6.84467	3.2449755	124.3976	6.920303	31.97886
1074	6.84322	3.2447630	124.6188	6.920586	31.97779
1075	6.84068	3.2446693	124.8276	6.920942	31.97902
1076	6.83815	3.2445757	125.0398	6.921298	31.98026
1077	6.83608	3.2445757	125.2457	6.921551	31.98209
1078	6.83473	3.2445133	125.4575	6.921748	31.98256
1079	6.83349	3.2444821	125.6784	6.921918	31.98327
1080	6.83292	3.2445135	125.8995	6.921976	31.98404
1081	6.83240	3.2444823	126.1178	6.922058	31.98408
1082	6.83184	3.2445136	126.3236	6.922116	31.98485
1083	6.83101	3.2443886	126.5444	6.922281	31.98416
1084	6.82966	3.2443262	126.7505	6.922478	31.98463
1085	6.82837	3.2442638	126.9683	6.922669	31.98505
1086	6.82770	3.2442638	127.1803	6.922755	31.98558
1087	6.82702	3.2442639	127.3984	6.922840	31.98610
1088	6.82666	3.2442640	127.6102	6.922888	31.98634
1089	6.82651	3.2442328	127.8374	6.922927	31.98604
1090	6.82573	3.2442016	128.0464	6.923040	31.98632
1091	6.82501	3.2441704	128.2672	6.923148	31.98655
1092	6.82330	3.2440830	128.5126	6.923401	31.98707
1093	6.82076	3.2439893	128.7671	6.923758	31.98828
1094	6.81787	3.2439582	128.9879	6.924127	31.99054
1095	6.81528	3.2439895	129.1939	6.924428	31.99319
1096	6.81311	3.2439896	129.4060	6.924694	31.99511
1097	6.81166	3.2439897	129.6207	6.924873	31.99636
1098	6.81021	3.2439898	129.8448	6.925052	31.99761
1099	6.80835	3.2439898	130.0598	6.925281	31.99924
1100	6.80669	3.2440524	130.2688	6.925454	32.00137
1101	6.80494	3.2440213	130.4687	6.925685	32.00257
1102	6.80369	3.2440526	130.6775	6.925824	32.00397
1103	6.80297	3.2440839	130.8899	6.925900	32.00489
1104	6.80240	3.2440840	131.1046	6.925973	32.00532
1105	6.80204	3.2441153	131.3166	6.926006	32.00590
1106	6.80168	3.2440529	131.5435	6.926085	32.00545
1107	6.80111	3.2440530	131.7648	6.926158	32.00587
1108	6.80095	3.2441468	131.9827	6.926135	32.00694
1109	6.80183	3.2445783	132.1977	6.925821	32.01074
1110	6.80385	3.2451973	132.4157	6.925278	32.01552
1111	6.80737	3.2458789	132.6306	6.924524	32.01960
1112	6.81145	3.2463480	132.8456	6.923806	32.02082
1113	6.81507	3.2466544	133.0575	6.923223	32.02069
1114	6.81823	3.2469671	133.2876	6.922695	32.02106
1115	6.82133	3.2473987	133.4905	6.922113	32.02279
1116	6.82459	3.2478366	133.7084	6.921510	32.02444
1117	6.82925	3.2488562	133.9324	6.920453	32.03114
1118	6.83623	3.2497570	134.1415	6.919175	32.03437
1119	6.84250	3.2501636	134.3594	6.918227	32.03287
1120	6.84747	3.2505328	134.5685	6.917452	32.03218
1121	6.85161	3.2508769	134.7805	6.916790	32.03198
1122	6.85502	3.2513150	135.0011	6.916169	32.03348
1123	6.85834	3.2515903	135.2134	6.915640	32.03330
1124	6.86067	3.2517468	135.4314	6.915288	32.03273
1125	6.86243	3.2518720	135.6464	6.915020	32.03236
1126	6.86383	3.2520285	135.8522	6.914779	32.03267
1127	6.86497	3.2522413	136.0643	6.914542	32.03383
1128	6.86600	3.2523978	136.2823	6.914346	32.03447
1129	6.86714	3.2526169	136.4850	6.914106	32.03571
1130	6.86833	3.2528047	136.6998	6.913875	32.03655
1131	6.86963	3.2530238	136.9181	6.913617	32.03763
1132	6.87072	3.2531803	137.1299	6.913414	32.03823
1133	6.87180	3.2533306	137.3417	6.913214	32.03875
1134	6.87289	3.2534871	137.5508	6.913011	32.03935
1135	6.87372	3.2536437	137.7777	6.912840	32.04018
1136	6.87460	3.2537063	137.9989	6.912708	32.03994
1137	6.87538	3.2538942	138.2592	6.912528	32.04115
1138	6.87595	3.2540507	138.5317	6.912388	32.04220
1139	6.87652	3.2541697	138.7678	6.912267	32.04285
1140	6.87688	3.2542324	138.9738	6.912197	32.04310
1141	6.87719	3.2543576	139.1676	6.912102	32.04409
1142	6.87755	3.2545142	139.3765	6.911986	32.04536
1143	6.87869	3.2548272	139.6035	6.911701	32.04761
1144	6.87963	3.2549525	139.8064	6.911532	32.04801
1145	6.88066	3.2550840	140.0121	6.911347	32.04839
1146	6.88128	3.2551654	140.2302	6.911237	32.04859
1147	6.88144	3.2553220	140.4422	6.911147	32.05006
1148	6.88170	3.2554160	140.6601	6.911074	32.05074
1149	6.88165	3.2555099	140.8750	6.911039	32.05171
1150	6.88170	3.2555413	141.0991	6.911022	32.05190
1151	6.88165	3.2556353	141.3019	6.910986	32.05288
1152	6.88165	3.2556979	141.5200	6.910960	32.05346
1153	6.88165	3.2557293	141.7259	6.910949	32.05371
1154	6.88175	3.2557607	141.9500	6.910926	32.05385
1155	6.88190	3.2557920	142.1680	6.910897	32.05394
1156	6.88196	3.2558547	142.3890	6.910864	32.05448
1157	6.88175	3.2558861	142.5858	6.910878	32.05492
1158	6.88170	3.2559175	142.8038	6.910873	32.05521
1159	6.88165	3.2559175	143.0156	6.910884	32.05516
1160	6.88149	3.2559489	143.2307	6.910892	32.05554
1161	6.88128	3.2559803	143.4395	6.910906	32.05598
1162	6.88113	3.2559490	143.6426	6.910944	32.05569
1163	6.88097	3.2559804	143.8605	6.910952	32.05607
1164	6.88077	3.2559805	144.0724	6.910981	32.05617
1165	6.88061	3.2559805	144.2871	6.911004	32.05621
1166	6.88035	3.2560119	144.4964	6.911024	32.05670
1167	6.88014	3.2560120	144.7140	6.911054	32.05679
1168	6.87994	3.2559808	144.9231	6.911098	32.05655
1169	6.87973	3.2559808	145.1381	6.911128	32.05664
1170	6.87931	3.2559809	145.3498	6.911182	32.05693
1171	6.87885	3.2559121	145.5620	6.911276	32.05651
1172	6.87797	3.2558558	145.7646	6.911414	32.05662
1173	6.87709	3.2557933	145.9737	6.911554	32.05666
1174	6.87579	3.2556682	146.1856	6.911776	32.05640
1175	6.87419	3.2555430	146.3973	6.912034	32.05643
1176	6.87242	3.2553866	146.5944	6.912326	32.05628
1177	6.87061	3.2552302	146.7943	6.912625	32.05616
1178	6.86901	3.2551990	147.0091	6.912837	32.05722
1179	6.86761	3.2552304	147.2272	6.912995	32.05876
1180	6.86678	3.2552617	147.4419	6.913083	32.05978
1181	6.86631	3.2552305	147.6539	6.913159	32.05977
1182	6.86595	3.2552619	147.8963	6.913192	32.06034
1183	6.86574	3.2552620	148.1385	6.913222	32.06042
1184	6.86564	3.2552620	148.3713	6.913239	32.06041
1185	6.86554	3.2552934	148.5774	6.913241	32.06075
1186	6.86528	3.2553248	148.7833	6.913261	32.06123
1187	6.86517	3.2553248	148.9983	6.913278	32.06123
1188	6.86528	3.2553249	149.2312	6.913270	32.06103
1189	6.86507	3.2552937	149.4431	6.913315	32.06078
1190	6.86424	3.2550809	149.6551	6.913523	32.05913
1191	6.86258	3.2548306	149.8731	6.913850	32.05784
1192	6.86139	3.2549872	150.0821	6.913920	32.06056
1193	6.86056	3.2550185	150.2999	6.914009	32.06157
1194	6.86036	3.2551125	150.5210	6.913992	32.06269
1195	6.86025	3.2551439	150.7267	6.913994	32.06303
1196	6.86025	3.2551753	150.9448	6.913983	32.06327
1197	6.86036	3.2551691	151.1600	6.913978	32.06301
1198	6.86036	3.2552004	151.3808	6.913967	32.06324
1199	6.86046	3.2552318	151.6017	6.913944	32.06339
1200	6.86046	3.2551693	151.8195	6.913979	32.06260
1201	6.86010	3.2551693	152.0379	6.914027	32.06284
1202	6.85958	3.2550818	152.2466	6.914137	32.06227
1203	6.85777	3.2546750	152.4677	6.914559	32.05941
1204	6.85440	3.2543308	152.6886	6.915137	32.05869
1205	6.85176	3.2545500	152.9099	6.915351	32.06344
1206	6.85093	3.2547378	153.1337	6.915363	32.06616
1207	6.85021	3.2545501	153.3456	6.915547	32.06468
1208	6.84892	3.2544250	153.5575	6.915768	32.06442
1209	6.84747	3.2542999	153.7845	6.916008	32.06430
1210	6.84643	3.2543000	153.9996	6.916137	32.06517
1211	6.84540	3.2543001	154.2175	6.916266	32.06603
1212	6.84488	3.2543001	154.4414	6.916333	32.06641
1213	6.84426	3.2542689	154.6568	6.916428	32.06655
1214	6.84270	3.2536806	154.8744	6.916908	32.06147
1215	6.83841	3.2530298	155.0955	6.917748	32.05826
1216	6.83308	3.2528422	155.3073	6.918485	32.06108
1217	6.82858	3.2527172	155.5312	6.919093	32.06381
1218	6.82542	3.2526547	155.7433	6.919508	32.06597
1219	6.82309	3.2526548	155.9704	6.919792	32.06803
1220	6.82175	3.2527174	156.1732	6.919928	32.06988
1221	6.82087	3.2527801	156.3942	6.920007	32.07128
1222	6.82025	3.2527802	156.6060	6.920086	32.07176
1223	6.81978	3.2527490	156.8211	6.920162	32.07175
1224	6.81947	3.2526927	157.0361	6.920232	32.07133
1225	6.81885	3.2527178	157.2568	6.920299	32.07208
1226	6.81828	3.2526866	157.4690	6.920387	32.07217
1227	6.81781	3.2526554	157.6747	6.920463	32.07216
1228	6.81745	3.2526554	157.9138	6.920511	32.07239
1229	6.81750	3.2526868	158.1743	6.920495	32.07256
1230	6.81730	3.2527182	158.4103	6.920509	32.07299
1231	6.81709	3.2527495	158.6192	6.920523	32.07343
1232	6.81750	3.2529999	158.8248	6.920355	32.07568
1233	6.81885	3.2531877	159.0341	6.920105	32.07638
1234	6.81983	3.2532754	159.2548	6.919949	32.07632
1235	6.82128	3.2535571	159.4789	6.919641	32.07794
1236	6.82330	3.2538701	159.6846	6.919249	32.07938
1237	6.82557	3.2540579	159.9058	6.918887	32.07920
1238	6.82713	3.2540580	160.1117	6.918705	32.07766
1239	6.82801	3.2540581	160.3266	6.918604	32.07674
1240	6.82847	3.2540894	160.5478	6.918537	32.07654
1241	6.82904	3.2541521	160.7565	6.918442	32.07660
1242	6.82966	3.2542398	160.9714	6.918329	32.07688
1243	6.83018	3.2542711	161.1896	6.918256	32.07663
1244	6.83033	3.2542086	161.4013	6.918273	32.07571
1245	6.83039	3.2542400	161.6222	6.918256	32.07590
1246	6.83065	3.2542400	161.8372	6.918229	32.07556
1247	6.83044	3.2542714	162.0459	6.918243	32.07599
1248	6.83033	3.2542715	162.2610	6.918260	32.07599
1249	6.83039	3.2543028	162.4638	6.918242	32.07619
1250	6.83049	3.2543029	162.6757	6.918234	32.07599
1251	6.83033	3.2543342	162.8937	6.918242	32.07638
1252	6.83013	3.2543343	163.1058	6.918272	32.07647
1253	6.83018	3.2543782	163.3235	6.918248	32.07680
1254	6.83028	3.2544596	163.5327	6.918200	32.07750
1255	6.83049	3.2544597	163.7505	6.918180	32.07720
1256	6.83054	3.2544911	163.9653	6.918163	32.07740
1257	6.83070	3.2545224	164.1802	6.918133	32.07749
1258	6.83080	3.2545225	164.3919	6.918125	32.07730
1259	6.83085	3.2545226	164.6009	6.918124	32.07715
1260	6.83049	3.2543661	164.8128	6.918248	32.07568
1261	6.82764	3.2536214	165.0189	6.918961	32.07010
1262	6.82252	3.2531271	165.2334	6.919824	32.06938
1263	6.81828	3.2529394	165.4396	6.920431	32.07119
1264	6.81414	3.2525014	165.6481	6.921148	32.07017
1265	6.80985	3.2521949	165.8664	6.921820	32.07072
1266	6.80628	3.2520386	166.0751	6.922331	32.07224
1267	6.80313	3.2519135	166.2842	6.922776	32.07372
1268	6.80064	3.2517885	166.4901	6.923141	32.07457
1269	6.79878	3.2517260	166.7080	6.923400	32.07552
1270	6.79733	3.2516948	166.9197	6.923595	32.07643
1271	6.79630	3.2516323	167.1256	6.923754	32.07662
1272	6.79532	3.2515698	167.3344	6.923908	32.07675
1273	6.79465	3.2515698	167.5467	6.923993	32.07728
1274	6.79408	3.2515073	167.7705	6.924097	32.07702
1275	6.79341	3.2514448	168.0125	6.924214	32.07685
1276	6.79320	3.2514762	168.2395	6.924228	32.07728
1277	6.79315	3.2515388	168.4543	6.924208	32.07792
1278	6.79330	3.2516328	168.6484	6.924147	32.07871
1279	6.79356	3.2517267	168.8633	6.924074	32.07939
1280	6.79423	3.2517580	169.0840	6.923983	32.07900
1281	6.79475	3.2517894	169.3021	6.923909	32.07876
1282	6.79527	3.2518520	169.5199	6.923821	32.07886
1283	6.79558	3.2518521	169.7289	6.923788	32.07847
1284	6.79578	3.2519022	169.9439	6.923743	32.07873
1285	6.79620	3.2519148	170.1590	6.923692	32.07838
1286	6.79635	3.2518836	170.3709	6.923693	32.07779
1287	6.79630	3.2519149	170.5887	6.923688	32.07808
1288	6.79646	3.2519776	170.7975	6.923643	32.07852
1289	6.79687	3.2520089	171.0001	6.923582	32.07839
1290	6.79718	3.2520716	171.1759	6.923518	32.07870
1291	6.79728	3.2521655	171.3213	6.923462	32.07956
1292	6.79754	3.2521342	171.4635	6.923449	32.07891
1293	6.79770	3.2521030	171.6269	6.923450	32.07835
1294	6.79770	3.2520718	171.8238	6.923469	32.07791
1295	6.79770	3.2520092	172.0326	6.923504	32.07713
1296	6.79733	3.2519467	172.2174	6.923582	32.07670
1297	6.79656	3.2519468	172.3868	6.923679	32.07735
1298	6.79563	3.2518843	172.5716	6.923826	32.07744
1299	6.79490	3.2518218	172.7653	6.923948	32.07734
1300	6.79454	3.2518218	172.9562	6.923996	32.07759
1301	6.79413	3.2518219	173.1407	6.924049	32.07789
1302	6.79408	3.2518532	173.3284	6.924044	32.07820
1303	6.79439	3.2519472	173.5038	6.923964	32.07885
1304	6.79506	3.2520098	173.7036	6.923857	32.07882
1305	6.79552	3.2520724	173.8825	6.923774	32.07898
1306	6.79609	3.2521038	174.0729	6.923694	32.07870
1307	6.79609	3.2520725	174.2514	6.923713	32.07828
1308	6.79599	3.2520726	174.4301	6.923729	32.07829
1309	6.79646	3.2522541	174.6209	6.923588	32.07975
1310	6.79702	3.2524732	174.8176	6.923416	32.08153
1311	6.79785	3.2524733	175.0113	6.923320	32.08066
1312	6.79811	3.2525359	175.2050	6.923262	32.08102
1313	6.79832	3.2525047	175.3836	6.923257	32.08040
1314	6.79811	3.2524734	175.5715	6.923301	32.08016
1315	6.79806	3.2524735	175.7741	6.923311	32.08011
1316	6.79806	3.2525049	176.0254	6.923301	32.08034
1317	6.79852	3.2527866	176.3221	6.923113	32.08285
1318	6.79971	3.2529431	176.5974	6.922898	32.08332
1319	6.80039	3.2530370	176.8092	6.922776	32.08362
1320	6.80106	3.2530997	176.9725	6.922668	32.08360
1321	6.80142	3.2531936	177.1272	6.922581	32.08422
1322	6.80157	3.2531311	177.2877	6.922597	32.08331
1323	6.80163	3.2531937	177.4693	6.922563	32.08386
1324	6.80323	3.2538447	177.6751	6.922055	32.08939
1325	6.80644	3.2542140	177.8869	6.921492	32.09033
1326	6.80907	3.2544018	178.1293	6.921087	32.08981
1327	6.81114	3.2544958	178.3442	6.920797	32.08880
1328	6.81233	3.2544958	178.5316	6.920658	32.08761
1329	6.81264	3.2544959	178.7012	6.920624	32.08724
1330	6.81285	3.2544959	178.8707	6.920602	32.08696
1331	6.81316	3.2544021	179.0492	6.920615	32.08557
1332	6.81274	3.2542770	179.2460	6.920730	32.08449
1333	6.81093	3.2537513	179.4278	6.921210	32.08035
1334	6.80757	3.2535010	179.6121	6.921742	32.08067
1335	6.80550	3.2536575	179.7968	6.921918	32.08422
1336	6.80607	3.2541583	179.9697	6.921607	32.08908
1337	6.80907	3.2549033	180.1572	6.920883	32.09434
1338	6.81290	3.2554291	180.3449	6.920169	32.09642
1339	6.81631	3.2557109	180.5386	6.919624	32.09623
1340	6.81880	3.2558048	180.7382	6.919283	32.09484
1341	6.82081	3.2559614	180.9265	6.918968	32.09458
1342	6.82237	3.2561492	181.1225	6.918693	32.09509
1343	6.82444	3.2564874	181.3076	6.918282	32.09677
1344	6.82707	3.2566940	181.4978	6.917867	32.09647
1345	6.82883	3.2568005	181.7011	6.917608	32.09590
1346	6.83039	3.2570510	181.8944	6.917302	32.09710
1347	6.83220	3.2572389	182.0822	6.916996	32.09737
1348	6.83344	3.2572389	182.2852	6.916851	32.09612
1349	6.83427	3.2572703	182.4789	6.916741	32.09560
1350	6.83473	3.2573267	182.6636	6.916661	32.09569
1351	6.83530	3.2573581	182.8631	6.916581	32.09541
1352	6.83556	3.2573894	183.0598	6.916539	32.09542
1353	6.83577	3.2574208	183.2535	6.916503	32.09548
1354	6.83572	3.2574209	183.4443	6.916513	32.09544
1355	6.83577	3.2574522	183.6412	6.916495	32.09564
1356	6.83592	3.2574836	183.8470	6.916466	32.09574
1357	6.83577	3.2574524	184.0527	6.916504	32.09545
1358	6.83546	3.2573898	184.2557	6.916576	32.09496
1359	6.83510	3.2574525	184.4552	6.916593	32.09589
1360	6.83577	3.2577030	184.6492	6.916394	32.09791
1361	6.83623	3.2576718	184.8367	6.916357	32.09704
1362	6.83696	3.2579536	185.0364	6.916136	32.09935
1363	6.83799	3.2579537	185.2330	6.916016	32.09829
1364	6.83820	3.2579224	185.4388	6.916010	32.09766
1365	6.83877	3.2580164	185.6418	6.915900	32.09806
1366	6.83929	3.2580165	185.8565	6.915842	32.09748
1367	6.84006	3.2582921	186.0745	6.915618	32.09966
1368	6.84162	3.2586053	186.2864	6.915283	32.10153
1369	6.84312	3.2587306	186.4953	6.915045	32.10140
1370	6.84436	3.2587619	186.7101	6.914885	32.10049
1371	6.84529	3.2587933	186.9102	6.914762	32.09987
1372	6.84596	3.2588560	187.1248	6.914655	32.09982
1373	6.84648	3.2589187	187.3395	6.914567	32.09992
1374	6.84695	3.2589814	187.5363	6.914484	32.10008
1375	6.84731	3.2589814	187.7270	6.914445	32.09965
1376	6.84741	3.2589815	187.9331	6.914437	32.09946
1377	6.84762	3.2590129	188.1538	6.914401	32.09951
1378	6.84757	3.2590129	188.3688	6.914412	32.09946
1379	6.84762	3.2590443	188.5867	6.914395	32.09965
1380	6.84757	3.2591383	188.8377	6.914360	32.10061
1381	6.84783	3.2591697	189.0891	6.914319	32.10059
1382	6.84798	3.2591698	189.3067	6.914305	32.10034
1383	6.84809	3.2592012	189.5187	6.914281	32.10049
1384	6.84824	3.2593265	189.7156	6.914205	32.10162
1385	6.84866	3.2593266	189.9244	6.914160	32.10114
1386	6.84907	3.2595145	190.1482	6.914023	32.10270
1387	6.85000	3.2596336	190.3632	6.913857	32.10303
1388	6.85078	3.2597088	190.5754	6.913731	32.10303
1389	6.85140	3.2597590	190.7991	6.913637	32.10289
1390	6.85187	3.2598217	191.0076	6.913555	32.10304
1391	6.85238	3.2598844	191.2135	6.913466	32.10315
1392	6.85326	3.2601037	191.4256	6.913257	32.10462
1393	6.85368	3.2600098	191.6372	6.913258	32.10311
1394	6.85414	3.2601351	191.8554	6.913145	32.10394
1395	6.85466	3.2601978	192.0761	6.913057	32.10404
1396	6.85539	3.2602918	192.2849	6.912928	32.10429
1397	6.85601	3.2603232	192.4998	6.912843	32.10395
1398	6.85627	3.2603233	192.7146	6.912816	32.10361
1399	6.85642	3.2603546	192.9295	6.912787	32.10371
1400	6.85678	3.2604173	193.1355	6.912717	32.10396
1401	6.85715	3.2605740	193.3414	6.912601	32.10523
1402	6.85792	3.2607307	193.5381	6.912435	32.10613
1403	6.85880	3.2608247	193.7406	6.912287	32.10624
1404	6.85968	3.2609124	193.9526	6.912143	32.10627
1405	6.86031	3.2609438	194.1584	6.912058	32.10594
1406	6.86082	3.2609439	194.3762	6.912000	32.10536
1407	6.86093	3.2609252	194.5761	6.912001	32.10496
1408	6.86077	3.2609127	194.7815	6.912030	32.10488
1409	6.86093	3.2610380	194.9968	6.911954	32.10600
1410	6.86139	3.2611007	195.2025	6.911872	32.10615
1411	6.86176	3.2611321	195.4265	6.911818	32.10605
1412	6.86212	3.2611948	195.6262	6.911748	32.10630
1413	6.86248	3.2612575	195.8292	6.911678	32.10655
1414	6.86300	3.2613516	196.0374	6.911574	32.10700
1415	6.86383	3.2615709	196.2406	6.911371	32.10853
1416	6.86445	3.2615083	196.4526	6.911332	32.10716
1417	6.86445	3.2614457	196.6642	6.911367	32.10638
1418	6.86440	3.2615084	196.8702	6.911347	32.10702
1419	6.86471	3.2616025	197.0849	6.911268	32.10765
1420	6.86523	3.2617905	197.2816	6.911118	32.10913
1421	6.86600	3.2618532	197.4935	6.910999	32.10899
1422	6.86652	3.2619159	197.6963	6.910910	32.10910
1423	6.86693	3.2619786	197.9079	6.910834	32.10930
1424	6.86699	3.2617907	198.1197	6.910924	32.10710
1425	6.86636	3.2617595	198.3286	6.911018	32.10724
1426	6.86616	3.2618473	198.5284	6.911005	32.10830
1427	6.86626	3.2619162	198.7341	6.910963	32.10886
1428	6.86657	3.2619789	198.9339	6.910899	32.10916
1429	6.86626	3.2617597	199.1459	6.911048	32.10696
1430	6.86486	3.2615719	199.3727	6.911313	32.10610
1431	6.86378	3.2615720	199.6180	6.911448	32.10701
1432	6.86284	3.2614781	199.8358	6.911611	32.10675
1433	6.86170	3.2614155	200.0385	6.911782	32.10703
1434	6.86067	3.2613842	200.2383	6.911926	32.10756
1435	6.85989	3.2613530	200.4316	6.912039	32.10786
1436	6.85937	3.2613844	200.6348	6.912090	32.10859
1437	6.85917	3.2615097	200.8431	6.912057	32.11005
1438	6.85984	3.2617604	201.0643	6.911858	32.11206
1439	6.86093	3.2618858	201.2734	6.911671	32.11231
1440	6.86176	3.2619171	201.4908	6.911561	32.11178
1441	6.86201	3.2617919	201.6969	6.911595	32.11008
1442	6.86113	3.2616354	201.8997	6.911782	32.10909
1443	6.85984	3.2615415	202.1024	6.911988	32.10918
1444	6.85886	3.2614601	202.3143	6.912150	32.10911
1445	6.85792	3.2614163	202.5321	6.912288	32.10940
1446	6.85704	3.2613537	202.7259	6.912428	32.10945
1447	6.85647	3.2614478	202.8619	6.912453	32.11094
1448	6.85622	3.2616984	202.9014	6.912362	32.11390
1449	6.85627	3.2617923	202.8682	6.912309	32.11489
1450	6.85777	3.2616983	202.8171	6.912174	32.11249
1451	6.85917	3.2616357	202.8018	6.912037	32.11051
1452	6.85963	3.2616670	202.8263	6.911966	32.11041
1453	6.85943	3.2616357	202.8566	6.912007	32.11024
1454	6.85891	3.2617296	202.8205	6.912022	32.11177
1455	6.85891	3.2617609	202.6755	6.912004	32.11218
1456	6.85958	3.2617609	202.4847	6.911919	32.11164
1457	6.86031	3.2616981	202.3008	6.911859	32.11036
1458	6.86088	3.2616981	202.1372	6.911787	32.10991
1459	6.86108	3.2616667	201.9833	6.911775	32.10944
1460	6.86119	3.2616980	201.8354	6.911744	32.10976
1461	6.86098	3.2616979	201.6748	6.911765	32.11003
1462	6.86088	3.2616666	201.5088	6.911789	32.10986
1463	6.86077	3.2616978	201.3603	6.911783	32.11037
1464	6.86067	3.2616978	201.2036	6.911793	32.11053
1465	6.86025	3.2616977	201.0521	6.911839	32.11099
1466	6.86020	3.2616977	200.8952	6.911842	32.11111
1467	6.86020	3.2616976	200.7410	6.911839	32.11118
1468	6.86036	3.2616976	200.5867	6.911817	32.11111
1469	6.86025	3.2616662	200.4266	6.911841	32.11094
1470	6.86031	3.2616975	200.2694	6.911817	32.11131
1471	6.86036	3.2616661	200.1123	6.911822	32.11099
1472	6.86036	3.2616974	199.9522	6.911804	32.11141
1473	6.86046	3.2616660	199.8009	6.911804	32.11104
1474	6.86046	3.2616346	199.6346	6.911815	32.11077
1475	6.86031	3.2616346	199.4502	6.911830	32.11100
1476	6.86041	3.2616659	199.2902	6.911799	32.11132
1477	6.86062	3.2616971	199.1241	6.911755	32.11155
1478	6.86072	3.2616971	198.9758	6.911740	32.11152
1479	6.86082	3.2616970	198.8308	6.911724	32.11149
1480	6.86088	3.2616343	198.6675	6.911746	32.11084
1481	6.86113	3.2616656	198.5134	6.911696	32.11101
1482	6.86103	3.2616656	198.3562	6.911705	32.11118
1483	6.86119	3.2616029	198.1838	6.911714	32.11043
1484	6.86129	3.2616028	197.9993	6.911697	32.11042
1485	6.86139	3.2616341	197.8180	6.911666	32.11075
1486	6.86176	3.2616340	197.6185	6.911618	32.11050
1487	6.86196	3.2616339	197.4190	6.911589	32.11040
1488	6.86233	3.2616025	197.2165	6.911557	32.10982
1489	6.86248	3.2616338	197.0045	6.911518	32.11011
1490	6.86248	3.2616024	196.7900	6.911529	32.10987
1491	6.86269	3.2615710	196.5817	6.911515	32.10943
1492	6.86295	3.2615709	196.3549	6.911479	32.10929
1493	6.86310	3.2615395	196.1310	6.911472	32.10891
1494	6.86336	3.2615395	195.9135	6.911436	32.10877
1495	6.86341	3.2615394	195.6961	6.911425	32.10882
1496	6.86362	3.2615707	195.4721	6.911380	32.10908
1497	6.86372	3.2615393	195.2574	6.911379	32.10874
1498	6.86378	3.2615392	195.0396	6.911368	32.10879
1499	6.86383	3.2615391	194.8223	6.911357	32.10884
1500	6.86388	3.2615516	194.6073	6.911340	32.10903
1501	6.86383	3.2615390	194.3838	6.911348	32.10905
1502	6.86388	3.2615076	194.1599	6.911353	32.10876
1503	6.86393	3.2615075	193.9511	6.911342	32.10881
1504	6.86388	3.2615075	193.7306	6.911344	32.10896
1505	6.86398	3.2615074	193.5131	6.911327	32.10896
1506	6.86388	3.2614760	193.2830	6.911350	32.10883
1507	6.86403	3.2614759	193.0682	6.911326	32.10878
1508	6.86398	3.2615072	192.8448	6.911313	32.10927
1509	6.86378	3.2614758	192.6269	6.911348	32.10923
1510	6.86388	3.2614757	192.4093	6.911331	32.10923
1511	6.86378	3.2614757	192.1887	6.911339	32.10943
1512	6.86393	3.2614443	191.9709	6.911331	32.10905
1513	6.86372	3.2614442	191.7532	6.911352	32.10934
1514	6.86362	3.2613815	191.5353	6.911390	32.10885
1515	6.86346	3.2613814	191.3150	6.911404	32.10910
1516	6.86336	3.2613813	191.0912	6.911412	32.10930
1517	6.86326	3.2613813	190.8584	6.911420	32.10951
1518	6.86315	3.2613374	190.6496	6.911449	32.10922
1519	6.86279	3.2613185	190.4380	6.911497	32.10945
1520	6.86243	3.2612558	190.2203	6.911567	32.10921
1521	6.86191	3.2612557	190.0087	6.911625	32.10979
1522	6.86134	3.2612243	189.7911	6.911704	32.11008
1523	6.86088	3.2612243	189.5610	6.911755	32.11062
1524	6.86077	3.2612242	189.3163	6.911762	32.11083
1525	6.86098	3.2611928	189.0926	6.911748	32.11040
1526	6.86072	3.2610674	188.8717	6.911836	32.10938
1527	6.86010	3.2609734	188.6633	6.911952	32.10903
1528	6.85937	3.2607604	188.4940	6.912140	32.10746
1529	6.85844	3.2605411	188.3579	6.912357	32.10600
1530	6.85746	3.2604784	188.2278	6.912503	32.10630
1531	6.85689	3.2605724	188.0949	6.912522	32.10791
1532	6.85668	3.2608855	187.9348	6.912390	32.11160
1533	6.85653	3.2611298	187.7564	6.912285	32.11450
1534	6.85668	3.2612550	187.5446	6.912201	32.11582
1535	6.85756	3.2611296	187.3509	6.912153	32.11372
1536	6.85818	3.2609730	187.1634	6.912151	32.11152
1537	6.85844	3.2609854	186.9734	6.912110	32.11150
1538	6.85849	3.2610668	186.7766	6.912060	32.11243
1539	6.85849	3.2611294	186.5711	6.912025	32.11321
1540	6.85844	3.2611293	186.3804	6.912027	32.11335
1541	6.85844	3.2610353	186.1960	6.912069	32.11241
1542	6.85855	3.2609413	185.9998	6.912099	32.11138
1543	6.85839	3.2609412	185.8121	6.912113	32.11161
1544	6.85823	3.2609412	185.6248	6.912128	32.11184
1545	6.85829	3.2609098	185.4253	6.912133	32.11154
1546	6.85834	3.2608220	185.2378	6.912166	32.11063
1547	6.85813	3.2607593	185.0440	6.912217	32.11023
1548	6.85803	3.2607279	184.8598	6.912241	32.11007
1549	6.85803	3.2607905	184.6631	6.912206	32.11084
1550	6.85782	3.2607591	184.4726	6.912243	32.11078
1551	6.85798	3.2606964	184.2789	6.912251	32.11004
1552	6.85787	3.2606651	184.0947	6.912275	32.10988
1553	6.85767	3.2606337	183.8984	6.912311	32.10983
1554	6.85756	3.2606023	183.7073	6.912335	32.10967
1555	6.85741	3.2606022	183.5173	6.912349	32.10990
1556	6.85730	3.2606022	183.3207	6.912358	32.11009
1557	6.85720	3.2605395	183.1362	6.912397	32.10959
1558	6.85689	3.2605707	182.9460	6.912415	32.11031
1559	6.85678	3.2605080	182.7555	6.912454	32.10981
1560	6.85663	3.2605393	182.5617	6.912453	32.11039
1561	6.85647	3.2605079	182.3652	6.912483	32.11028
1562	6.85637	3.2605392	182.1747	6.912476	32.11081
1563	6.85632	3.2605391	181.9816	6.912478	32.11095
1564	6.85647	3.2605704	181.7879	6.912440	32.11123
1565	6.85658	3.2605077	181.5972	6.912455	32.11054
1566	6.85678	3.2605076	181.4098	6.912426	32.11044
1567	6.85673	3.2605076	181.2133	6.912428	32.11058
1568	6.85668	3.2605075	181.0166	6.912430	32.11072
1569	6.85678	3.2605074	180.8291	6.912414	32.11071
1570	6.85689	3.2605074	180.6297	6.912397	32.11070
1571	6.85689	3.2605073	180.4421	6.912393	32.11079
1572	6.85694	3.2604759	180.2488	6.912398	32.11049
1573	6.85694	3.2604759	180.0488	6.912394	32.11058
1574	6.85668	3.2604445	179.8646	6.912437	32.11057
1575	6.85684	3.2604131	179.6651	6.912429	32.11017
1576	6.85678	3.2603880	179.4715	6.912444	32.11004
1577	6.85647	3.2604130	179.2750	6.912465	32.11069
1578	6.85653	3.2604442	179.0633	6.912439	32.11109
1579	6.85658	3.2605068	178.8395	6.912397	32.11183
1580	6.85730	3.2604441	178.6279	6.912336	32.11056
1581	6.85792	3.2603814	178.4343	6.912288	32.10939
1582	6.85813	3.2603500	178.2589	6.912275	32.10894
1583	6.85829	3.2603813	178.0626	6.912237	32.10922
1584	6.85860	3.2603812	177.8718	6.912196	32.10902
1585	6.85865	3.2603811	177.6725	6.912185	32.10907
1586	6.85855	3.2603811	177.4606	6.912193	32.10926
1587	6.85860	3.2606316	177.2126	6.912059	32.11207
1588	6.85880	3.2607881	176.9313	6.911952	32.11371
1589	6.85968	3.2604121	176.6865	6.912025	32.10890
1590	6.85979	3.2601928	176.4901	6.912116	32.10650
1591	6.85772	3.2599736	176.3116	6.912469	32.10613
1592	6.85280	3.2600988	176.1180	6.912993	32.11218
1593	6.84990	3.2602867	175.9183	6.913245	32.11703
1594	6.84757	3.2602867	175.7125	6.913520	32.11930
1595	6.84534	3.2601614	175.5193	6.913845	32.12010
1596	6.84348	3.2600298	175.3259	6.914129	32.12049
1597	6.84136	3.2600360	175.1260	6.914376	32.12264
1598	6.83975	3.2600360	174.9263	6.914565	32.12423
1599	6.83877	3.2600672	174.7208	6.914663	32.12558
1600	6.83794	3.2600359	174.5211	6.914774	32.12611
1601	6.83737	3.2600358	174.3246	6.914838	32.12673
1602	6.83696	3.2600044	174.1221	6.914899	32.12687
1603	6.83670	3.2599731	173.9256	6.914941	32.12686
1604	6.83618	3.2598790	173.7260	6.915045	32.12641
1605	6.83520	3.2597850	173.5353	6.915205	32.12639
1606	6.83411	3.2597224	173.3391	6.915363	32.12681
1607	6.83323	3.2596597	173.1424	6.915495	32.12704
1608	6.83256	3.2595719	172.9397	6.915614	32.12681
1609	6.83230	3.2595092	172.7400	6.915672	32.12646
1610	6.83178	3.2594779	172.5467	6.915745	32.12669
1611	6.83147	3.2593525	172.3468	6.915840	32.12571
1612	6.83096	3.2592585	172.1415	6.915944	32.12526
1613	6.82992	3.2591019	171.9418	6.916141	32.12461
1614	6.82863	3.2587887	171.7420	6.916446	32.12249
1615	6.82682	3.2584755	171.5396	6.916813	32.12085
1616	6.82501	3.2582563	171.3400	6.917134	32.12024
1617	6.82242	3.2581060	171.1374	6.917515	32.12111
1618	6.81978	3.2580433	170.9409	6.917858	32.12298
1619	6.81802	3.2580433	170.7382	6.918065	32.12472
1620	6.81688	3.2578867	170.5416	6.918275	32.12417
1621	6.81549	3.2576361	170.3421	6.918561	32.12283
1622	6.81331	3.2573543	170.1455	6.918957	32.12187
1623	6.81093	3.2570788	169.9459	6.919374	32.12117
1624	6.80897	3.2568909	169.7492	6.919699	32.12105
1625	6.80731	3.2567030	169.5406	6.919986	32.12064
1626	6.80602	3.2565464	169.3500	6.920214	32.12022
1627	6.80478	3.2564838	169.1446	6.920390	32.12079
1628	6.80426	3.2564837	168.9507	6.920448	32.12137
1629	6.80385	3.2572037	168.7421	6.920139	32.12972
1630	6.80432	3.2576983	168.5243	6.919835	32.13480
1631	6.80499	3.2575104	168.3189	6.919842	32.13221
1632	6.80607	3.2567026	168.1252	6.920105	32.12246
1633	6.80623	3.2563894	167.9287	6.920236	32.11898
1634	6.80576	3.2565459	167.7260	6.920211	32.12122
1635	6.80576	3.2568276	167.5113	6.920068	32.12440
1636	6.80654	3.2566710	167.3176	6.920048	32.12206
1637	6.80685	3.2564518	167.1180	6.920114	32.11946
1638	6.80618	3.2562639	166.9216	6.920283	32.11813
1639	6.80545	3.2561574	166.7247	6.920418	32.11773
1640	6.80452	3.2561761	166.5194	6.920517	32.11891
1641	6.80385	3.2561135	166.3227	6.920624	32.11894
1642	6.80338	3.2561134	166.1202	6.920676	32.11947
1643	6.80328	3.2560508	165.9234	6.920715	32.11897
1644	6.80307	3.2563262	165.7271	6.920600	32.12227
1645	6.80313	3.2566705	165.5240	6.920420	32.12608
1646	6.80369	3.2568582	165.3187	6.920255	32.12770
1647	6.80411	3.2568895	165.1191	6.920186	32.12775
1648	6.80421	3.2569833	164.9256	6.920123	32.12877
1649	6.80483	3.2569520	164.7229	6.920060	32.12794
1650	6.80592	3.2570458	164.5204	6.919879	32.12805
1651	6.80685	3.2570457	164.3206	6.919763	32.12727
1652	6.80783	3.2570770	164.1240	6.919625	32.12679
1653	6.80866	3.2571082	163.9245	6.919506	32.12645
1654	6.80938	3.2572334	163.7248	6.919353	32.12724
1655	6.81011	3.2573836	163.5251	6.919188	32.12829
1656	6.81083	3.2575087	163.3196	6.919035	32.12908
1657	6.81119	3.2574774	163.1229	6.919003	32.12849
1658	6.81181	3.2575086	162.9204	6.918909	32.12835
1659	6.81254	3.2574772	162.7206	6.918833	32.12742
1660	6.81321	3.2572893	162.5212	6.918840	32.12484
1661	6.81368	3.2571703	162.3216	6.918839	32.12319
1662	6.81378	3.2570700	162.1130	6.918871	32.12210
1663	6.81399	3.2570449	161.9133	6.918854	32.12172
1664	6.81414	3.2569822	161.7106	6.918862	32.12099
1665	6.81424	3.2569822	161.5142	6.918846	32.12098
1666	6.81445	3.2568882	161.3055	6.918863	32.11986
1667	6.81461	3.2567629	161.1059	6.918901	32.11844
1668	6.81445	3.2565750	160.8999	6.919008	32.11663
1669	6.81399	3.2563245	160.7004	6.919183	32.11442
1670	6.81290	3.2561429	160.5038	6.919399	32.11354
1671	6.81145	3.2561992	160.3012	6.919541	32.11561
1672	6.81052	3.2563243	160.0985	6.919587	32.11794
1673	6.81021	3.2564808	159.8928	6.919543	32.12004
1674	6.81052	3.2566373	159.6929	6.919424	32.12155
1675	6.81083	3.2566998	159.4936	6.919352	32.12204
1676	6.81104	3.2567937	159.2941	6.919277	32.12296
1677	6.81088	3.2568875	159.0943	6.919245	32.12423
1678	6.81114	3.2571379	158.8888	6.919086	32.12682
1679	6.81171	3.2574134	158.6890	6.918878	32.12940
1680	6.81445	3.2579768	158.4741	6.918267	32.13309
1681	6.82019	3.2581646	158.2535	6.917481	32.12988
1682	6.82702	3.2579453	158.0540	6.916764	32.12120
1683	6.83194	3.2580391	157.8604	6.916123	32.11772
1684	6.83504	3.2582269	157.6668	6.915654	32.11697
1685	6.83691	3.2583082	157.4610	6.915386	32.11621
1686	6.83846	3.2584146	157.2584	6.915143	32.11602
1687	6.83996	3.2585335	157.0559	6.914900	32.11601
1688	6.84182	3.2585960	156.8502	6.914642	32.11505
1689	6.84389	3.2586899	156.6506	6.914343	32.11424
1690	6.84565	3.2588150	156.4418	6.914066	32.11406
1691	6.84700	3.2588776	156.2393	6.913869	32.11358
1692	6.84824	3.2588149	156.0307	6.913747	32.11183
1693	6.84923	3.2587835	155.8218	6.913639	32.11067
1694	6.85021	3.2588147	155.6101	6.913502	32.11019
1695	6.85104	3.2587520	155.3952	6.913428	32.10884
1696	6.85156	3.2587520	155.1807	6.913362	32.10845
1697	6.85181	3.2588145	154.9627	6.913295	32.10900
1698	6.85212	3.2588144	154.7450	6.913254	32.10881
1699	6.85238	3.2587831	154.5242	6.913233	32.10833
1700	6.85295	3.2587830	154.3034	6.913160	32.10790
1701	6.85321	3.2587516	154.0829	6.913140	32.10742
1702	6.85326	3.2585950	153.8587	6.913206	32.10576
1703	6.85306	3.2584383	153.6349	6.913303	32.10435
1704	6.85306	3.2582566	153.4110	6.913387	32.10247
1705	6.85326	3.2581626	153.1961	6.913404	32.10135
1706	6.85342	3.2580999	152.9755	6.913411	32.10063
1707	6.85347	3.2580435	152.7516	6.913428	32.10007
1708	6.85342	3.2579746	152.5308	6.913464	32.09947
1709	6.85337	3.2579119	152.3099	6.913496	32.09893
1710	6.85326	3.2579431	152.0862	6.913488	32.09948
1711	6.85306	3.2579430	151.8534	6.913508	32.09978
1712	6.85275	3.2579743	151.6262	6.913525	32.10052
1713	6.85280	3.2579429	151.4025	6.913530	32.10023
1714	6.85254	3.2579115	151.1815	6.913572	32.10023
1715	6.85244	3.2578488	150.9610	6.913610	32.09975
1716	6.85244	3.2577235	150.7341	6.913667	32.09849
1717	6.85233	3.2576608	150.5073	6.913705	32.09801
1718	6.85228	3.2575981	150.2893	6.913738	32.09747
1719	6.85218	3.2575981	150.0654	6.913745	32.09767
1720	6.85192	3.2575667	149.8478	6.913787	32.09767
1721	6.85166	3.2575979	149.6210	6.913798	32.09836
1722	6.85150	3.2576605	149.3969	6.913782	32.09930
1723	6.85145	3.2578483	149.1731	6.913691	32.10150
1724	6.85135	3.2578482	148.9434	6.913698	32.10170
1725	6.85093	3.2578795	148.7255	6.913728	32.10253
1726	6.85031	3.2578481	148.4924	6.913813	32.10288
1727	6.84980	3.2579419	148.2626	6.913825	32.10450
1728	6.84912	3.2578479	148.0326	6.913947	32.10421
1729	6.84876	3.2576538	147.8117	6.914081	32.10253
1730	6.84845	3.2575660	147.5910	6.914156	32.10196
1731	6.84829	3.2575660	147.3673	6.914170	32.10221
1732	6.84814	3.2575659	147.1284	6.914184	32.10247
1733	6.84778	3.2575345	146.9074	6.914238	32.10257
1734	6.84762	3.2575658	146.6867	6.914237	32.10316
1735	6.84747	3.2576283	146.4535	6.914220	32.10410
1736	6.84721	3.2576595	146.2268	6.914231	32.10479
1737	6.84690	3.2576908	146.0059	6.914248	32.10552
1738	6.84653	3.2576907	145.7881	6.914287	32.10596
1739	6.84643	3.2576593	145.5614	6.914310	32.10582
1740	6.84638	3.2576906	145.3344	6.914296	32.10632
1741	6.84607	3.2576905	145.1134	6.914329	32.10671
1742	6.84602	3.2577218	144.8990	6.914315	32.10720
1743	6.84581	3.2578469	144.6779	6.914274	32.10887
1744	6.84571	3.2579721	144.4419	6.914220	32.11044
1745	6.84586	3.2580347	144.2179	6.914166	32.11108
1746	6.84638	3.2580033	144.0033	6.914115	32.11036
1747	6.84710	3.2580345	143.7734	6.914007	32.11013
1748	6.84793	3.2580657	143.5463	6.913888	32.10981
1749	6.84871	3.2580343	143.3167	6.913805	32.10885
1750	6.84897	3.2580030	143.1017	6.913785	32.10836
1751	6.84892	3.2579528	142.8781	6.913811	32.10797
1752	6.84907	3.2579089	142.6509	6.913809	32.10745
1753	6.84933	3.2579088	142.4362	6.913774	32.10731
1754	6.84928	3.2578461	142.2184	6.913806	32.10677
1755	6.84912	3.2578774	142.0007	6.913805	32.10736
1756	6.84912	3.2578460	141.7707	6.913815	32.10713
1757	6.84917	3.2578459	141.5470	6.913804	32.10718
1758	6.84938	3.2578458	141.3292	6.913775	32.10709
1759	6.84933	3.2578145	141.1052	6.913792	32.10690
1760	6.84938	3.2577831	140.8785	6.913796	32.10662
1761	6.84917	3.2577830	140.6548	6.913816	32.10692
1762	6.84897	3.2577516	140.4306	6.913852	32.10687
1763	6.84881	3.2577516	140.2128	6.913866	32.10712
1764	6.84866	3.2577202	139.9860	6.913895	32.10703
1765	6.84871	3.2576888	139.7681	6.913900	32.10674
1766	6.84855	3.2576887	139.5439	6.913914	32.10699
1767	6.84835	3.2576574	139.3205	6.913949	32.10695
1768	6.84824	3.2576260	139.1085	6.913973	32.10680
1769	6.84814	3.2576259	138.8784	6.913980	32.10700
1770	6.84804	3.2575945	138.6609	6.914004	32.10686
1771	6.84798	3.2575945	138.4311	6.914005	32.10701
1772	6.84772	3.2575944	138.1858	6.914031	32.10737
1773	6.84767	3.2575317	137.9470	6.914063	32.10685
1774	6.84752	3.2573876	137.7141	6.914147	32.10553
1775	6.84721	3.2574376	137.5080	6.914156	32.10646
1776	6.84705	3.2575002	137.2812	6.914139	32.10740
1777	6.84690	3.2574688	137.0573	6.914168	32.10730
1778	6.84674	3.2574687	136.8275	6.914182	32.10756
1779	6.84679	3.2575000	136.6035	6.914156	32.10795
1780	6.84664	3.2574686	136.3917	6.914185	32.10786
1781	6.84653	3.2574372	136.1648	6.914208	32.10772
1782	6.84648	3.2574058	135.9384	6.914225	32.10753
1783	6.84664	3.2574058	135.7232	6.914202	32.10748
1784	6.84669	3.2573744	135.4994	6.914206	32.10720
1785	6.84664	3.2573743	135.2636	6.914208	32.10736
1786	6.84648	3.2573430	135.0455	6.914237	32.10726
1787	6.84633	3.2573116	134.8247	6.914266	32.10717
1788	6.84617	3.2573115	134.5975	6.914280	32.10742
1789	6.84622	3.2572801	134.3828	6.914285	32.10713
1790	6.84633	3.2573114	134.1623	6.914253	32.10748
1791	6.84633	3.2572800	133.9323	6.914263	32.10724
1792	6.84622	3.2572799	133.7175	6.914271	32.10744
1793	6.84628	3.2572548	133.4905	6.914272	32.10722
1794	6.84633	3.2572234	133.2696	6.914277	32.10694
1795	6.84633	3.2571920	133.0425	6.914287	32.10670
1796	6.84628	3.2571920	132.8189	6.914289	32.10685
1797	6.84628	3.2572107	132.5950	6.914275	32.10716
1798	6.84628	3.2571918	132.3680	6.914280	32.10706
1799	6.84622	3.2571605	132.1411	6.914296	32.10688
1800	6.84633	3.2571604	131.9174	6.914279	32.10688
1801	6.84617	3.2571290	131.6873	6.914308	32.10679
1802	6.84607	3.2570976	131.4664	6.914332	32.10665
1803	6.84607	3.2570663	131.2428	6.914342	32.10641
1804	6.84591	3.2570662	131.0124	6.914356	32.10667
1805	6.84576	3.2570348	130.7889	6.914385	32.10657
1806	6.84560	3.2570660	130.5679	6.914384	32.10716
1807	6.84540	3.2570973	130.3441	6.914389	32.10780
1808	6.84550	3.2570972	130.1233	6.914372	32.10781
1809	6.84555	3.2570658	129.9054	6.914376	32.10752
1810	6.84565	3.2570658	129.6875	6.914359	32.10753
1811	6.84576	3.2570344	129.4605	6.914357	32.10719
1812	6.84571	3.2570030	129.2336	6.914374	32.10701
1813	6.84576	3.2570342	129.0069	6.914348	32.10741
1814	6.84565	3.2570029	128.7799	6.914371	32.10727
1815	6.84581	3.2570028	128.5559	6.914348	32.10723
1816	6.84596	3.2569714	128.3230	6.914339	32.10685
1817	6.84612	3.2569400	128.0719	6.914331	32.10648
1818	6.84607	3.2568773	127.8327	6.914363	32.10595
1819	6.84617	3.2568147	127.6057	6.914376	32.10528
1820	6.84591	3.2567895	127.3850	6.914415	32.10535
1821	6.84571	3.2567832	127.1580	6.914438	32.10558
1822	6.84555	3.2567518	126.9282	6.914468	32.10549
1823	6.84545	3.2567518	126.6951	6.914475	32.10570
1824	6.84540	3.2567517	126.4651	6.914476	32.10585
1825	6.84540	3.2566890	126.2443	6.914503	32.10527
1826	6.84534	3.2566889	126.0203	6.914504	32.10543
1827	6.84519	3.2566889	125.7845	6.914518	32.10568
1828	6.84519	3.2566575	125.5606	6.914528	32.10544
1829	6.84514	3.2566261	125.3396	6.914545	32.10525
1830	6.84514	3.2566260	125.1094	6.914541	32.10536
1831	6.84498	3.2565947	124.8857	6.914570	32.10527
1832	6.84498	3.2565633	124.6618	6.914580	32.10503
1833	6.84493	3.2565319	124.4378	6.914597	32.10484
1834	6.84477	3.2565319	124.2112	6.914611	32.10509
1835	6.84457	3.2565944	123.9811	6.914601	32.10608
1836	6.84431	3.2565943	123.7606	6.914627	32.10642
1837	6.84395	3.2565943	123.5333	6.914666	32.10687
1838	6.84369	3.2565942	123.3065	6.914692	32.10721
1839	6.84364	3.2565628	123.0823	6.914709	32.10703
1840	6.84343	3.2565627	122.8554	6.914729	32.10732
1841	6.84348	3.2565627	122.6285	6.914718	32.10738
1842	6.84364	3.2565626	122.4047	6.914695	32.10734
1843	6.84364	3.2565625	122.1778	6.914690	32.10745
1844	6.84353	3.2565812	121.9597	6.914689	32.10785
1845	6.84369	3.2565311	121.7297	6.914690	32.10727
1846	6.84379	3.2564997	121.5062	6.914688	32.10693
1847	6.84395	3.2564683	121.2731	6.914680	32.10655
1848	6.84405	3.2564369	121.0402	6.914678	32.10622
1849	6.84431	3.2564369	120.8101	6.914642	32.10609
1850	6.84436	3.2564368	120.5833	6.914631	32.10615
1851	6.84477	3.2564054	120.3532	6.914592	32.10553
1852	6.84503	3.2563427	120.1262	6.914587	32.10471
1853	6.84524	3.2563427	119.8964	6.914557	32.10462
1854	6.84540	3.2562800	119.6664	6.914564	32.10390
1855	6.84529	3.2562799	119.4424	6.914572	32.10410
1856	6.84534	3.2562172	119.2094	6.914592	32.10348
1857	6.84524	3.2561608	118.9825	6.914627	32.10306
1858	6.84514	3.2561607	118.7494	6.914634	32.10327
1859	6.84508	3.2560981	118.5193	6.914667	32.10274
1860	6.84488	3.2560980	118.2895	6.914687	32.10304
1861	6.84467	3.2560666	118.0474	6.914722	32.10301
1862	6.84467	3.2560978	117.8084	6.914701	32.10346
1863	6.84446	3.2560665	117.5693	6.914737	32.10342
1864	6.84420	3.2560351	117.3454	6.914778	32.10343
1865	6.84410	3.2560350	117.1154	6.914786	32.10363
1866	6.84400	3.2560036	116.8824	6.914809	32.10350
1867	6.84369	3.2559723	116.6556	6.914857	32.10355
1868	6.84348	3.2559033	116.4347	6.914911	32.10309
1869	6.84317	3.2559095	116.2077	6.914940	32.10356
1870	6.84327	3.2558469	115.9748	6.914954	32.10289
1871	6.84374	3.2558155	115.7507	6.914908	32.10221
1872	6.84431	3.2558154	115.5177	6.914835	32.10179
1873	6.84488	3.2557527	115.2999	6.914793	32.10068
1874	6.84524	3.2556900	115.0672	6.914775	32.09976
1875	6.84534	3.2556587	114.8279	6.914773	32.09944
1876	6.84534	3.2556586	114.6039	6.914768	32.09954
1877	6.84514	3.2555959	114.3738	6.914819	32.09916
1878	6.84508	3.2555019	114.1499	6.914867	32.09829
1879	6.84493	3.2554706	113.9141	6.914896	32.09820
1880	6.84498	3.2555331	113.6720	6.914854	32.09895
1881	6.84488	3.2555330	113.4420	6.914861	32.09915
1882	6.84493	3.2555016	113.2181	6.914866	32.09887
1883	6.84514	3.2555016	112.9880	6.914836	32.09878
1884	6.84534	3.2554389	112.7488	6.914837	32.09801
1885	6.84560	3.2554075	112.5311	6.914817	32.09753
1886	6.84571	3.2554074	112.2981	6.914799	32.09755
1887	6.84576	3.2554074	112.0679	6.914788	32.09760
1888	6.84576	3.2553760	111.8441	6.914799	32.09737
1889	6.84586	3.2553446	111.6112	6.914797	32.09704
1890	6.84581	3.2553133	111.3872	6.914814	32.09685
1891	6.84581	3.2553132	111.1542	6.914809	32.09696
1892	6.84581	3.2552818	110.9241	6.914820	32.09672
1893	6.84586	3.2552817	110.6940	6.914809	32.09678
1894	6.84596	3.2553130	110.4611	6.914776	32.09714
1895	6.84612	3.2552816	110.2375	6.914768	32.09675
1896	6.84607	3.2552502	110.0103	6.914785	32.09657
1897	6.84617	3.2552188	109.7805	6.914783	32.09624
1898	6.84622	3.2551875	109.5537	6.914787	32.09595
1899	6.84628	3.2552187	109.3231	6.914761	32.09635
1900	6.84633	3.2552186	109.0904	6.914750	32.09641
1901	6.84607	3.2551560	108.8514	6.914806	32.09608
1902	6.84586	3.2550995	108.6211	6.914854	32.09577
1903	6.84560	3.2550056	108.3945	6.914927	32.09509
1904	6.84519	3.2549742	108.1582	6.914987	32.09524
1905	6.84493	3.2549741	107.9162	6.915013	32.09560
1906	6.84488	3.2549428	107.6682	6.915029	32.09542
1907	6.84493	3.2549740	107.4352	6.915003	32.09582
1908	6.84524	3.2549113	107.2142	6.914991	32.09495
1909	6.84540	3.2548486	106.9750	6.914998	32.09424
1910	6.84508	3.2547234	106.7483	6.915092	32.09326
1911	6.84498	3.2547233	106.5090	6.915100	32.09347
1912	6.84452	3.2546919	106.2820	6.915166	32.09367
1913	6.84426	3.2546293	106.0520	6.915223	32.09334
1914	6.84395	3.2546918	105.8190	6.915225	32.09442
1915	6.84389	3.2545978	105.5892	6.915273	32.09355
1916	6.84369	3.2545665	105.3530	6.915308	32.09351
1917	6.84364	3.2545351	105.1262	6.915325	32.09332
1918	6.84379	3.2544724	104.9080	6.915332	32.09260
1919	6.84400	3.2544723	104.6752	6.915302	32.09251
1920	6.84405	3.2544472	104.4453	6.915304	32.09230
1921	6.84395	3.2544096	104.2119	6.915330	32.09209
1922	6.84389	3.2543469	103.9854	6.915362	32.09156
1923	6.84374	3.2543156	103.7431	6.915391	32.09148
1924	6.84400	3.2543781	103.5192	6.915324	32.09203
1925	6.84477	3.2544093	103.2951	6.915211	32.09175
1926	6.84581	3.2544092	103.0621	6.915082	32.09089
1927	6.84669	3.2543778	102.8444	6.914987	32.08983
1928	6.84752	3.2542839	102.6053	6.914928	32.08814
1929	6.84819	3.2542212	102.3813	6.914874	32.08693
1930	6.84876	3.2542211	102.1543	6.914801	32.08651
1931	6.84933	3.2541334	101.9272	6.914770	32.08513
1932	6.84928	3.2541020	101.6940	6.914787	32.08494
1933	6.84907	3.2541020	101.4705	6.914807	32.08524
1934	6.84876	3.2540080	101.2400	6.914886	32.08461
1935	6.84845	3.2539141	101.0226	6.914965	32.08398
1936	6.84829	3.2538827	100.7924	6.914994	32.08389
1937	6.84778	3.2538513	100.5625	6.915067	32.08414
1938	6.84752	3.2536948	100.3384	6.915170	32.08277
1939	6.84710	3.2536321	100.1145	6.915246	32.08258
1940	6.84684	3.2535695	99.8964	6.915303	32.08224
1941	6.84674	3.2535381	99.6665	6.915326	32.08210
1942	6.84684	3.2535068	99.4488	6.915324	32.08177
1943	6.84736	3.2535380	99.2215	6.915242	32.08173
1944	6.84788	3.2535379	98.9948	6.915175	32.08135
1945	6.84819	3.2534439	98.7710	6.915179	32.08014
1946	6.84804	3.2534126	98.5499	6.915208	32.08005
1947	6.84809	3.2534751	98.3260	6.915167	32.08079
1948	6.84793	3.2535314	98.0988	6.915153	32.08166
1949	6.84772	3.2534750	97.8749	6.915201	32.08134
1950	6.84741	3.2532871	97.6510	6.915325	32.07968
1951	6.84710	3.2531056	97.4211	6.915447	32.07810
1952	6.84716	3.2531931	97.1969	6.915393	32.07911
1953	6.84695	3.2531930	96.9701	6.915413	32.07941
1954	6.84674	3.2530428	96.7522	6.915507	32.07806
1955	6.84643	3.2530740	96.5342	6.915525	32.07880
1956	6.84602	3.2529488	96.3104	6.915631	32.07792
1957	6.84550	3.2528548	96.0864	6.915735	32.07748
1958	6.84550	3.2527922	95.8623	6.915761	32.07690
1959	6.84555	3.2526982	95.6384	6.915796	32.07593
1960	6.84576	3.2526669	95.4204	6.915782	32.07550
1961	6.84581	3.2526668	95.1905	6.915771	32.07556
1962	6.84571	3.2526041	94.9787	6.915809	32.07507
1963	6.84576	3.2526667	94.7546	6.915768	32.07581
1964	6.84534	3.2527292	94.5367	6.915782	32.07698
1965	6.84514	3.2526352	94.3278	6.915849	32.07625
1966	6.84483	3.2526352	94.1161	6.915882	32.07664
1967	6.84462	3.2525725	93.8982	6.915933	32.07625
1968	6.84472	3.2525099	93.6833	6.915946	32.07557
1969	6.84467	3.2524472	93.4593	6.915979	32.07504
1970	6.84457	3.2523533	93.2413	6.916033	32.07421
1971	6.84452	3.2522906	93.0265	6.916065	32.07368
1972	6.84446	3.2522906	92.8115	6.916067	32.07383
1973	6.84441	3.2524782	92.5846	6.915976	32.07603
1974	6.84431	3.2524782	92.3788	6.915984	32.07622
1975	6.84426	3.2523842	92.1578	6.916032	32.07535
1976	6.84420	3.2522027	91.9400	6.916123	32.07352
1977	6.84420	3.2520775	91.7218	6.916179	32.07225
1978	6.84410	3.2518897	91.5070	6.916280	32.07040
1979	6.84389	3.2517895	91.2803	6.916349	32.06960
1980	6.84379	3.2517644	91.0713	6.916369	32.06952
1981	6.84348	3.2517017	90.8504	6.916433	32.06923
1982	6.84322	3.2518581	90.6324	6.916382	32.07129
1983	6.84312	3.2519519	90.4175	6.916344	32.07251
1984	6.84296	3.2519518	90.1997	6.916358	32.07276
1985	6.84291	3.2518892	89.9817	6.916391	32.07222
1986	6.84276	3.2519204	89.7668	6.916389	32.07281
1987	6.84276	3.2520142	89.5459	6.916339	32.07394
1988	6.84270	3.2519516	89.3340	6.916371	32.07340
1989	6.84255	3.2518889	89.1100	6.916416	32.07297
1990	6.84255	3.2518263	88.8980	6.916442	32.07238
1991	6.84239	3.2516698	88.6772	6.916533	32.07092
1992	6.84219	3.2514820	88.4533	6.916645	32.06917
1993	6.84224	3.2515445	88.2416	6.916604	32.06990
1994	6.84229	3.2515757	88.0235	6.916578	32.07030
1995	6.84270	3.2514192	87.7813	6.916600	32.06832
1996	6.84312	3.2513002	87.5360	6.916603	32.06674
1997	6.84322	3.2519822	87.3182	6.916251	32.07421
1998	6.84312	3.2520135	87.1033	6.916244	32.07474
1999	6.84307	3.2515441	86.8914	6.916476	32.06976
2000	6.84286	3.2514814	86.6735	6.916527	32.06937
2001	6.84255	3.2514188	86.4584	6.916590	32.06908
2002	6.84229	3.2514813	86.2347	6.916586	32.07011
2003	6.84213	3.2513874	86.0167	6.916646	32.06933
2004	6.84203	3.2512058	85.7928	6.916743	32.06755
2005	6.84172	3.2507678	85.5748	6.916991	32.06315
2006	6.84167	3.2504299	85.3568	6.917159	32.05961
2007	6.84156	3.2502421	85.1360	6.917259	32.05776
2008	6.84131	3.2502420	84.9180	6.917285	32.05810
2009	6.84141	3.2503045	84.7001	6.917237	32.05879
2010	6.84167	3.2502106	84.4729	6.917248	32.05763
2011	6.84172	3.2502105	84.2552	6.917237	32.05769
2012	6.84182	3.2501792	84.0402	6.917235	32.05735
2013	6.84193	3.2501916	83.8131	6.917212	32.05749
2014	6.84172	3.2500852	83.6043	6.917285	32.05662
2015	6.84156	3.2502103	83.3832	6.917237	32.05824
2016	6.84162	3.2498974	83.1595	6.917380	32.05488
2017	6.84141	3.2497409	82.9475	6.917477	32.05346
2018	6.84125	3.2498034	82.7264	6.917461	32.05439
2019	6.84105	3.2498659	82.5146	6.917450	32.05537
2020	6.84110	3.2498033	82.2938	6.917470	32.05474
2021	6.84100	3.2498032	82.0727	6.917478	32.05494
2022	6.84079	3.2497719	81.8489	6.917513	32.05489
2023	6.84079	3.2496467	81.6397	6.917571	32.05363
2024	6.84063	3.2496466	81.4159	6.917584	32.05387
2025	6.84068	3.2496778	81.2009	6.917558	32.05427
2026	6.84037	3.2497716	80.9739	6.917545	32.05569
2027	6.84032	3.2497402	80.7622	6.917562	32.05550
2028	6.84017	3.2493085	80.5442	6.917788	32.05103
2029	6.84017	3.2493084	80.3231	6.917783	32.05113
2030	6.84001	3.2492458	80.1051	6.917828	32.05069
2031	6.83996	3.2494960	79.8783	6.917707	32.05358
2032	6.83996	3.2494021	79.6602	6.917748	32.05266
2033	6.84001	3.2491831	79.4362	6.917845	32.05032
2034	6.83986	3.2492768	79.2184	6.917813	32.05159
2035	6.83975	3.2491516	79.0004	6.917882	32.05042
2036	6.83975	3.2490265	78.7826	6.917939	32.04916
2037	6.83981	3.2490890	78.5676	6.917898	32.04990
2038	6.83981	3.2491202	78.3376	6.917877	32.05034
2039	6.83991	3.2491201	78.1230	6.917860	32.05035
2040	6.84006	3.2491826	77.8837	6.917806	32.05100
2041	6.84027	3.2490261	77.6534	6.917853	32.04920
2042	6.84006	3.2496454	77.4356	6.917569	32.05627
2043	6.84006	3.2491824	77.2144	6.917792	32.05131
2044	6.83996	3.2490259	76.9872	6.917876	32.04981
2045	6.83981	3.2489946	76.7696	6.917906	32.04971
2046	6.83981	3.2489945	76.5456	6.917901	32.04982
2047	6.83955	3.2487755	76.3186	6.918035	32.04777
2048	6.83960	3.2486253	76.1004	6.918098	32.04618
2049	6.83944	3.2485001	75.8795	6.918174	32.04506
2050	6.83934	3.2483124	75.6587	6.918274	32.04321
2051	6.83929	3.2479683	75.4467	6.918444	32.03960
2052	6.83924	3.2478181	75.2288	6.918520	32.03811
2053	6.83929	3.2478806	75.0077	6.918478	32.03885
2054	6.83918	3.2479118	74.7928	6.918471	32.03939
2055	6.83934	3.2476803	74.5719	6.918561	32.03682
2056	6.83939	3.2477866	74.3509	6.918498	32.03803
2057	6.83960	3.2477865	74.1270	6.918468	32.03795
2058	6.83991	3.2478803	73.9025	6.918380	32.03879
2059	6.84001	3.2478802	73.6819	6.918363	32.03879
2060	6.84012	3.2477863	73.4548	6.918392	32.03778
2061	6.84017	3.2477862	73.2372	6.918381	32.03783
2062	6.84027	3.2477236	73.0221	6.918395	32.03715
2063	6.84053	3.2477548	72.8070	6.918344	32.03735
2064	6.84058	3.2476609	72.5951	6.918379	32.03638
2065	6.84074	3.2474732	72.3866	6.918449	32.03428
2066	6.84084	3.2475044	72.1685	6.918416	32.03463
2067	6.84084	3.2475669	71.9414	6.918381	32.03542
2068	6.84068	3.2474417	71.7293	6.918456	32.03429
2069	6.84074	3.2472541	71.5115	6.918538	32.03230
2070	6.84089	3.2472540	71.2935	6.918515	32.03226
2071	6.84105	3.2472539	71.0666	6.918491	32.03222
2072	6.84115	3.2472538	70.8456	6.918474	32.03222
2073	6.84141	3.2471912	70.6276	6.918469	32.03140
2074	6.84136	3.2475351	70.4096	6.918302	32.03531
2075	6.84156	3.2476289	70.1886	6.918226	32.03625
2076	6.84156	3.2475663	69.9646	6.918252	32.03567
2077	6.84162	3.2472848	69.7436	6.918379	32.03265
2078	6.84136	3.2471346	69.5228	6.918480	32.03135
2079	6.84146	3.2471345	69.3109	6.918463	32.03135
2080	6.84136	3.2469781	69.0959	6.918548	32.02984
2081	6.84105	3.2470093	68.8717	6.918565	32.03058
2082	6.84094	3.2471343	68.6600	6.918511	32.03214
2083	6.84094	3.2470404	68.4359	6.918553	32.03122
2084	6.84100	3.2469466	68.2088	6.918588	32.03025
2085	6.84105	3.2468840	67.9819	6.918608	32.02963
2086	6.84115	3.2475030	67.7518	6.918286	32.03641
2087	6.84105	3.2475968	67.5338	6.918248	32.03763
2088	6.84110	3.2477531	67.3068	6.918160	32.03940
2089	6.84115	3.2478156	67.0859	6.918118	32.04014
2090	6.84110	3.2477842	66.8649	6.918135	32.03995
2091	6.84110	3.2477529	66.6468	6.918146	32.03971
2092	6.84100	3.2477215	66.4287	6.918169	32.03956
2093	6.84110	3.2477527	66.2079	6.918137	32.03991
2094	6.84115	3.2477527	65.9901	6.918126	32.03997
2095	6.84120	3.2474712	65.7688	6.918253	32.03695
2096	6.84115	3.2473460	65.5450	6.918316	32.03573
2097	6.84110	3.2471020	65.3299	6.918438	32.03321
2098	6.84115	3.2469143	65.1118	6.918519	32.03122
2099	6.84100	3.2467892	64.8878	6.918595	32.03010
2100	6.84094	3.2465702	64.6731	6.918704	32.02786
2101	6.84094	3.2466014	64.4580	6.918684	32.02830
2102	6.84100	3.2466014	64.2371	6.918673	32.02835
2103	6.84120	3.2465388	64.0161	6.918674	32.02758
2104	6.84110	3.2462010	63.7920	6.918848	32.02409
2105	6.84110	3.2460133	63.5679	6.918936	32.02215
2106	6.84125	3.2458569	63.3530	6.918989	32.02039
2107	6.84146	3.2457943	63.1381	6.918991	32.01962
2108	6.84182	3.2458880	62.9113	6.918896	32.02041
2109	6.84229	3.2458880	62.6902	6.918835	32.02008
2110	6.84255	3.2457628	62.4690	6.918861	32.01857
2111	6.84291	3.2457002	62.2603	6.918844	32.01765
2112	6.84327	3.2456126	62.0452	6.918839	32.01646
2113	6.84369	3.2455500	61.8150	6.918815	32.01550
2114	6.84410	3.2455812	61.6033	6.918745	32.01555
2115	6.84441	3.2455811	61.3852	6.918703	32.01536
2116	6.84483	3.2455811	61.1610	6.918649	32.01508
2117	6.84493	3.2454872	60.9403	6.918678	32.01406
2118	6.84519	3.2454559	60.7161	6.918657	32.01359
2119	6.84524	3.2454871	60.4892	6.918631	32.01399
2120	6.84514	3.2455808	60.2681	6.918593	32.01521
2121	6.84498	3.2456370	60.0439	6.918579	32.01608
2122	6.84488	3.2452993	59.8200	6.918753	32.01259
2123	6.84488	3.2450178	59.5992	6.918886	32.00961
2124	6.84508	3.2451741	59.3870	6.918780	32.01123
2125	6.84545	3.2461057	59.1663	6.918274	32.02118
2126	6.84555	3.2463808	58.9541	6.918122	32.02419
2127	6.84555	3.2464120	58.7332	6.918102	32.02463
2128	6.84555	3.2464745	58.5182	6.918067	32.02542
2129	6.84550	3.2465682	58.2972	6.918022	32.02660
2130	6.84555	3.2456114	58.0611	6.918481	32.01620
2131	6.84545	3.2453924	57.8370	6.918596	32.01401
2132	6.84550	3.2453611	57.6218	6.918601	32.01372
2133	6.84560	3.2454548	57.3919	6.918538	32.01476
2134	6.84571	3.2453922	57.1681	6.918551	32.01408
2135	6.84596	3.2452984	56.9409	6.918561	32.01292
2136	6.84591	3.2453921	56.7138	6.918517	32.01410
2137	6.84607	3.2453295	56.4958	6.918524	32.01338
2138	6.84612	3.2451731	56.2687	6.918590	32.01173
2139	6.84612	3.2452355	56.0538	6.918555	32.01251
2140	6.84633	3.2454231	55.8297	6.918433	32.01447
2141	6.84638	3.2455168	55.6056	6.918376	32.01555
2142	6.84633	3.2452666	55.3906	6.918501	32.01297
2143	6.84653	3.2451102	55.1697	6.918548	32.01117
2144	6.84659	3.2448350	54.9396	6.918672	32.00822
2145	6.84674	3.2446161	54.7157	6.918756	32.00579
2146	6.84679	3.2445223	54.4946	6.918791	32.00482
2147	6.84690	3.2446785	54.2705	6.918697	32.00654
2148	6.84700	3.2445534	54.0496	6.918742	32.00518
2149	6.84710	3.2444283	53.8315	6.918786	32.00382
2150	6.84716	3.2443344	53.6107	6.918821	32.00285
2151	6.84736	3.2442406	53.3865	6.918838	32.00174
2152	6.84767	3.2443343	53.1653	6.918750	32.00257
2153	6.84798	3.2443342	52.9475	6.918708	32.00239
2154	6.84814	3.2442091	52.7294	6.918746	32.00098
2155	6.84835	3.2443028	52.5113	6.918670	32.00191
2156	6.84855	3.2441464	52.2934	6.918718	32.00011
2157	6.84871	3.2439963	52.0663	6.918768	31.99844
2158	6.84902	3.2440900	51.8515	6.918680	31.99927
2159	6.84923	3.2441462	51.6334	6.918623	31.99980
2160	6.84969	3.2442087	51.4063	6.918531	32.00015
2161	6.85031	3.2443962	51.1883	6.918360	32.00172
2162	6.85078	3.2444273	50.9612	6.918284	32.00174
2163	6.85135	3.2444898	50.7402	6.918180	32.00199
2164	6.85187	3.2445522	50.5162	6.918082	32.00230
2165	6.85192	3.2447397	50.2952	6.917979	32.00441
2166	6.85202	3.2446771	50.0744	6.917993	32.00373
2167	6.85218	3.2445520	49.8441	6.918031	32.00233
2168	6.85238	3.2446457	49.6292	6.917955	32.00326
2169	6.85238	3.2445831	49.4050	6.917981	32.00268
2170	6.85254	3.2444580	49.1870	6.918019	32.00127
2171	6.85295	3.2444892	48.9721	6.917950	32.00133
2172	6.85321	3.2442391	48.7480	6.918037	31.99846
2173	6.85347	3.2441202	48.5270	6.918059	31.99702
2174	6.85368	3.2439013	48.3120	6.918137	31.99454
2175	6.85373	3.2437450	48.0880	6.918203	31.99289
2176	6.85414	3.2438387	47.8672	6.918103	31.99363
2177	6.85466	3.2442074	47.6459	6.917855	31.99728
2178	6.85518	3.2440261	47.4250	6.917877	31.99492
2179	6.85554	3.2438697	47.2100	6.917905	31.99298
2180	6.85606	3.2439009	46.9889	6.917823	31.99294
2181	6.85622	3.2436507	46.7709	6.917923	31.99017
2182	6.85704	3.2436819	46.5526	6.917803	31.98984
2183	6.85767	3.2437756	46.3440	6.917678	31.99038
2184	6.85834	3.2438381	46.1170	6.917562	31.99054
2185	6.85927	3.2435567	45.8960	6.917583	31.98671
2186	6.86025	3.2437754	45.6779	6.917353	31.98828
2187	6.86108	3.2436503	45.4600	6.917310	31.98625
2188	6.86207	3.2435877	45.2477	6.917218	31.98475
2189	6.86284	3.2435876	45.0301	6.917120	31.98413
2190	6.86378	3.2432187	44.8029	6.917184	31.97933
2191	6.86450	3.2429998	44.5879	6.917200	31.97637
2192	6.86507	3.2431560	44.3608	6.917050	31.97765
2193	6.86554	3.2433748	44.1397	6.916882	31.97971
2194	6.86616	3.2427496	43.9186	6.917110	31.97241
2195	6.86699	3.2424745	43.6885	6.917140	31.96874
2196	6.86771	3.2426307	43.4647	6.916972	31.96988
2197	6.86844	3.2427493	43.2404	6.916821	31.97061
2198	6.86916	3.2427805	43.0193	6.916714	31.97038
2199	6.86963	3.2427242	42.7984	6.916681	31.96943
2200	6.87020	3.2426304	42.5772	6.916654	31.96798
2201	6.87103	3.2425365	42.3563	6.916596	31.96629
2202	6.87201	3.2426302	42.1413	6.916427	31.96650
2203	6.87336	3.2425989	41.9232	6.916276	31.96501
2204	6.87444	3.2427801	41.7021	6.916051	31.96608
2205	6.87569	3.2427487	41.4841	6.915913	31.96468
2206	6.87724	3.2426924	41.2695	6.915749	31.96272
2207	6.87864	3.2426298	41.0542	6.915607	31.96084
2208	6.87973	3.2431548	40.8332	6.915214	31.96566
2209	6.88035	3.2430922	40.6032	6.915165	31.96451
2210	6.88066	3.2426296	40.3791	6.915350	31.95927
2211	6.88118	3.2422857	40.1580	6.915452	31.95514
2212	6.88154	3.2419793	39.9342	6.915554	31.95157
2213	6.88299	3.2420418	39.7128	6.915344	31.95100
2214	6.88481	3.2419167	39.4827	6.915183	31.94806
2215	6.88667	3.2418541	39.2617	6.914985	31.94575
2216	6.88797	3.2423478	39.0315	6.914582	31.95004
2217	6.88895	3.2418227	38.8044	6.914716	31.94350
2218	6.88983	3.2416351	38.5834	6.914698	31.94074
2219	6.89066	3.2420413	38.3504	6.914394	31.94451
2220	6.89237	3.2427225	38.1109	6.913849	31.95047
2221	6.89491	3.2447354	37.8930	6.912553	31.97018
2222	6.89631	3.2446728	37.6778	6.912411	31.96830
2223	6.89590	3.2444226	37.4476	6.912578	31.96606
2224	6.89553	3.2437099	37.2268	6.912967	31.95873
2225	6.89533	3.2430909	36.9876	6.913290	31.95227
2226	6.89527	3.2431534	36.7664	6.913261	31.95311
2227	6.89517	3.2430908	36.5455	6.913299	31.95263
2228	6.89522	3.2429032	36.3154	6.913380	31.95064
2229	6.89517	3.2427781	36.0912	6.913443	31.94943
2230	6.89496	3.2428405	35.8643	6.913433	31.95041
2231	6.89476	3.2429967	35.6431	6.913376	31.95241
2232	6.89450	3.2430279	35.4162	6.913387	31.95310
2233	6.89476	3.2420090	35.1918	6.913851	31.94184
2234	6.89501	3.2412652	34.9646	6.914180	31.93359
2235	6.89558	3.2410776	34.7379	6.914198	31.93112
2236	6.89750	3.2411400	34.5105	6.913933	31.93012
2237	6.90072	3.2415711	34.2955	6.913331	31.93195
2238	6.90357	3.2415710	34.0805	6.912984	31.92940
2239	6.90564	3.2416334	33.8594	6.912699	31.92826
2240	6.90683	3.2419771	33.6382	6.912383	31.93100
2241	6.90725	3.2424083	33.4203	6.912117	31.93543
2242	6.90730	3.2416645	33.1871	6.912470	31.92737
2243	6.90782	3.2415081	32.9692	6.912480	31.92529
2244	6.90828	3.2413831	32.7453	6.912481	31.92359
2245	6.90911	3.2415080	32.5211	6.912315	31.92429
2246	6.91093	3.2416641	32.3001	6.912016	31.92441
2247	6.91414	3.2419766	32.0670	6.911472	31.92495
2248	6.91814	3.2420952	31.8398	6.910930	31.92264
2249	6.92140	3.2421576	31.6219	6.910502	31.92039
2250	6.92420	3.2420950	31.3977	6.910192	31.91721
2251	6.92659	3.2422824	31.1645	6.909809	31.91715
2252	6.92872	3.2422198	30.9343	6.909579	31.91461
2253	6.93146	3.2421885	30.7102	6.909260	31.91182
2254	6.93468	3.2425634	30.4892	6.908685	31.91303
2255	6.93800	3.2425320	30.2741	6.908298	31.90970
2256	6.94023	3.2423132	30.0470	6.908132	31.90536
2257	6.94143	3.2422193	29.8289	6.908030	31.90333
2258	6.94335	3.2421255	29.6077	6.907841	31.90063
2259	6.94516	3.2424692	29.3779	6.907450	31.90280
2260	6.94755	3.2425941	29.1506	6.907098	31.90205
2261	6.95045	3.2426252	28.9326	6.906730	31.89980
2262	6.95196	3.2427439	28.7145	6.906486	31.89980
2263	6.95409	3.2427438	28.4873	6.906226	31.89793
2264	6.95684	3.2426562	28.2696	6.905935	31.89453
2265	6.95943	3.2425936	28.0390	6.905649	31.89155
2266	6.96312	3.2428060	27.8030	6.905098	31.89056
2267	6.96779	3.2431497	27.5729	6.904365	31.89008
2268	6.97272	3.2432434	27.3547	6.903723	31.88663
2269	6.97594	3.2429307	27.1215	6.903485	31.88036
2270	6.97625	3.2429619	26.8914	6.903427	31.88051
2271	6.97485	3.2430243	26.6612	6.903560	31.88260
2272	6.97418	3.2444184	26.4434	6.902956	31.89851
2273	6.97418	3.2447622	26.2193	6.902783	31.90236
2274	6.97413	3.2454124	25.9979	6.902468	31.90960
2275	6.97366	3.2451935	25.7680	6.902626	31.90775
2276	6.97355	3.2444806	25.5530	6.902982	31.90019
2277	6.97329	3.2428677	25.3199	6.903795	31.88297
2278	6.97298	3.2422488	25.0957	6.904130	31.87662
2279	6.97262	3.2424987	24.8715	6.904047	31.87979
2280	6.97163	3.2424362	24.6412	6.904191	31.88013
2281	6.97111	3.2437676	24.4174	6.903598	31.89522
2282	6.97070	3.2441364	24.1990	6.903464	31.89972
2283	6.97023	3.2442301	23.9722	6.903469	31.90128
2284	6.97044	3.2441675	23.7421	6.903470	31.90051
2285	6.97096	3.2439549	23.5178	6.903507	31.89782
2286	6.97143	3.2439235	23.2938	6.903461	31.89715
2287	6.97163	3.2439860	23.0786	6.903401	31.89774
2288	6.97184	3.2440484	22.8484	6.903341	31.89834
2289	6.97194	3.2440796	22.6244	6.903309	31.89869
2290	6.97220	3.2439545	22.4096	6.903334	31.89718
2291	6.97252	3.2441107	22.1853	6.903216	31.89870
2292	6.97278	3.2439856	21.9673	6.903241	31.89720
2293	6.97288	3.2440481	21.7398	6.903193	31.89789
2294	6.97309	3.2442606	21.5281	6.903060	31.90011
2295	6.97319	3.2445106	21.2980	6.902921	31.90285
2296	6.97345	3.2445105	21.0768	6.902885	31.90271
2297	6.97366	3.2443854	20.8497	6.902917	31.90126
2298	6.97397	3.2442290	20.6287	6.902951	31.89937
2299	6.97449	3.2439226	20.4077	6.903034	31.89566
2300	6.97537	3.2435474	20.1803	6.903106	31.89086
2301	6.97651	3.2434848	19.9623	6.902995	31.88922
2302	6.97818	3.2433035	19.7474	6.902880	31.88581
2303	6.98181	3.2429595	19.5263	6.902607	31.87880
2304	6.98540	3.2428657	19.2990	6.902219	31.87456
2305	6.99002	3.2426530	19.0811	6.901764	31.86807
2306	6.99547	3.2428029	18.8631	6.901032	31.86475
2307	7.00420	3.2433028	18.6420	6.899738	31.86222
2308	7.01262	3.2437028	18.4269	6.898530	31.85888
2309	7.01792	3.2435776	18.2089	6.897951	31.85272
2310	7.02089	3.2436400	17.9876	6.897562	31.85076
2311	7.02203	3.2437337	17.7454	6.897374	31.85083
2312	7.02167	3.2446339	17.5183	6.896974	31.86107
2313	7.02104	3.2442900	17.3063	6.897212	31.85801
2314	7.02057	3.2445713	17.0912	6.897127	31.86160
2315	7.02000	3.2441961	16.8702	6.897373	31.85815
2316	7.01990	3.2441335	16.6459	6.897411	31.85767
2317	7.02083	3.2440772	16.4281	6.897322	31.85629
2318	7.02354	3.2443209	16.2099	6.896875	31.85655
2319	7.02666	3.2441957	15.9857	6.896558	31.85241
2320	7.03108	3.2442269	15.7736	6.896009	31.84876
2321	7.03700	3.2441642	15.5434	6.895325	31.84270
2322	7.04611	3.2444454	15.3255	6.894095	31.83745
2323	7.05537	3.2445703	15.1041	6.892921	31.83035
2324	7.06197	3.2447890	14.8802	6.892020	31.82673
2325	7.06499	3.2445075	14.6621	6.891791	31.82099
2326	7.06723	3.2442886	14.4409	6.891625	31.81664
2327	7.07087	3.2439822	14.2201	6.891333	31.81006
2328	7.07384	3.2439508	13.9957	6.890989	31.80708
2329	7.07650	3.2442883	13.7687	6.890503	31.80840
2330	7.08066	3.2441632	13.5447	6.890061	31.80331
2331	7.08415	3.2440130	13.3296	6.889712	31.79856
2332	7.08758	3.2438879	13.1055	6.889357	31.79413
2333	7.08920	3.2444442	12.8721	6.888890	31.79879
2334	7.08982	3.2446317	12.6419	6.888719	31.80036
2335	7.09123	3.2448754	12.4210	6.888428	31.80181
2336	7.09264	3.2451567	12.2000	6.888119	31.80367
2337	7.09284	3.2457132	11.9756	6.887819	31.80963
2338	7.09248	3.2457756	11.7548	6.887828	31.81075
2339	7.09175	3.2462133	11.5396	6.887698	31.81627
2340	7.09107	3.2453753	11.3246	6.888181	31.80790
2341	7.09092	3.2449376	11.1004	6.888408	31.80339
2342	7.09086	3.2449062	10.8762	6.888424	31.80321
2343	7.09055	3.2445998	10.6463	6.888606	31.80028
2344	7.09045	3.2447873	10.4252	6.888523	31.80251
2345	7.09019	3.2458064	10.1978	6.888054	31.81392
2346	7.09024	3.2469883	9.9676	6.887470	31.82682
2347	7.09060	3.2473259	9.7375	6.887258	31.83025
2348	7.09113	3.2475135	9.5132	6.887100	31.83191
2349	7.09180	3.2474196	9.2830	6.887060	31.83038
2350	7.10014	3.2471693	9.0527	6.886181	31.82007
2351	7.29995	3.2473547	8.8287	6.862271	31.63860
2352	7.68580	3.2471629	8.6046	6.816660	31.28684
2353	7.98945	3.2444646	8.3715	6.782208	30.98740
2354	8.23842	3.2425427	8.1593	6.753974	30.74807
2355	8.67594	3.2420380	7.9351	6.703415	30.36382
2356	9.16149	3.2409203	7.7142	6.648115	29.94041
2357	9.59011	3.2401096	7.4839	6.599709	29.57602
2358	9.98648	3.2419989	7.2506	6.554256	29.27156
2359	10.21483	3.2349116	7.0234	6.531629	29.01738
2360	10.48421	3.2284289	6.7963	6.504260	28.73954
2361	10.78519	3.2210093	6.5753	6.473887	28.43147
2362	10.99849	3.2211878	6.3420	6.450299	28.26854
2363	11.07417	3.2133908	6.1057	6.445049	28.13502
2364	11.11940	3.2083338	5.8785	6.442061	28.05166
2365	11.28241	3.2020966	5.6545	6.426605	27.86803
2366	11.51770	3.1916436	5.4210	6.404904	27.59156
2367	11.78227	3.1805582	5.1969	6.380306	27.29072
2368	11.99818	3.1730826	4.9698	6.359694	27.06283
2369	12.19753	3.1658184	4.7457	6.340850	26.85106
2370	12.35790	3.1585175	4.5185	6.326262	26.66856
2371	12.48890	3.1532888	4.2853	6.314095	26.52735
2372	12.61971	3.1490584	4.0609	6.301604	26.39639
2373	12.71306	3.1430329	3.8341	6.293792	26.27567
2374	12.79312	3.1365615	3.6069	6.287564	26.16057
2375	12.89684	3.1320932	3.3824	6.278088	26.04807
2376	13.02141	3.1277751	3.1585	6.266350	25.92327
2377	13.16342	3.1204895	2.9130	6.253831	25.76032
2378	13.30943	3.1209993	2.6951	6.238168	25.66656
2379	13.47935	3.1214164	2.4617	6.220074	25.55656
2380	13.59698	3.1153247	2.2315	6.209800	25.42338
2381	13.61397	3.1137980	2.0106	6.208539	25.39845
2382	13.65972	3.1142406	1.7952	6.203575	25.37223
2383	13.76741	3.1093046	1.6167	6.193971	25.25700
2384	13.86129	3.1063084	1.4410	6.185161	25.16871
2385	13.92412	3.1044632	1.2622	6.179217	25.11128
2386	13.97732	3.0967755	1.0896	6.176269	25.00817
2387	14.01748	3.0962653	0.9202	6.172246	24.97768
2388	14.06206	3.0911934	0.7503	6.169307	24.90381
2389	14.09467	3.0866892	0.5838	6.167423	24.84284
2390	14.11716	3.0845729	0.4170	6.165788	24.80966
2391	14.13979	3.0997468	0.2748	6.158314	24.92985
2392	14.12907	3.1823195	0.1414	6.131608	25.67136
2393	13.42964	3.1799998	0.0657	6.204841	26.12160
2394	11.95967	3.2078999	0.0747	6.350709	27.42131
2395	10.55846	3.2512336	0.0718	6.486699	28.90801
2396	9.24927	3.2546019	0.0747	6.632041	30.00970
2397	8.47118	3.2488282	0.0746	6.723914	30.61455
2398	8.17061	2.0584644	0.0687	7.309869	18.70094
2399	8.07392	0.6198867	0.0718	7.995800	5.12879
2400	8.06763	0.6409932	0.0687	7.987330	5.31694
2401	8.09308	0.5197316	0.0656	8.037678	4.24574
2402	8.10664	0.5873533	0.0715	8.004517	4.83680
2403	8.11753	0.4961383	0.0718	8.043701	4.03751
2404	8.13014	0.5755161	0.0685	8.005503	4.72946
2405	8.14606	0.4206777	0.0715	8.072056	3.38364
2406	8.16408	0.5288423	0.0655	8.020229	4.31656
2407	8.18312	0.5102600	0.0715	8.025006	4.15255
2408	8.20180	0.5416317	0.0747	8.007415	4.42343
2409	8.22005	0.5595404	0.0685	7.995954	4.57753
2410	8.23746	0.5096287	0.0684	8.015090	4.14068
2411	8.25530	0.4225861	0.0684	8.050445	3.38947
2412	8.27364	0.4776529	0.0686	8.022558	3.86009
2413	8.29187	0.3627515	0.0715	8.069811	2.87842
2414	8.31264	0.3593031	0.0683	8.067354	2.84768
2415	8.33658	0.3786931	0.0745	8.054317	3.00925
2416	8.38844	0.4021494	0.0685	8.034218	3.20318
