Scan Count	Temperature [ITS-90, deg C]	Conductivity [S/m]	Pressure, Strain Gauge [db]	Depth [salt water, m]	Oxygen Saturation, Weiss [ml/l]	Salinity, Practical [PSU]
1	15.57240	0.0124173	-0.0697	-0.0694	6.957740	0.07365
2	15.57325	0.0121259	-0.0699	-0.0695	6.957684	0.07198
3	15.57410	0.0117910	-0.0668	-0.0664	6.957638	0.07007
4	15.57580	0.0114129	-0.0699	-0.0695	6.957476	0.06791
5	15.57776	0.0107961	-0.0668	-0.0665	6.957332	0.06441
6	15.57998	0.0105204	-0.0729	-0.0725	6.957067	0.06284
7	15.58109	0.0110131	-0.0698	-0.0694	6.956783	0.06563
8	15.58239	0.0114872	-0.0668	-0.0665	6.956473	0.06833
9	15.58331	0.0130128	-0.0638	-0.0635	6.955967	0.07704
10	15.58442	0.0151045	-0.0638	-0.0634	6.955291	0.08907
11	15.58553	0.0163872	-0.0638	-0.0634	6.954811	0.09649
12	15.58664	0.0164120	-0.0638	-0.0635	6.954639	0.09663
13	15.58742	0.0165922	-0.0669	-0.0665	6.954478	0.09768
14	15.58853	0.0160330	-0.0638	-0.0635	6.954450	0.09443
15	15.58971	0.0153405	-0.0699	-0.0695	6.954444	0.09042
16	15.59049	0.0149772	-0.0698	-0.0695	6.954416	0.08832
17	15.59141	0.0146140	-0.0699	-0.0696	6.954368	0.08623
18	15.59213	0.0144029	-0.0608	-0.0605	6.954313	0.08501
19	15.59304	0.0142074	-0.0669	-0.0666	6.954224	0.08388
20	15.59402	0.0153560	-0.0638	-0.0635	6.953797	0.09050
21	15.59474	0.0157566	-0.0699	-0.0696	6.953592	0.09282
22	15.59553	0.0155734	-0.0668	-0.0665	6.953520	0.09176
23	15.59611	0.0152318	-0.0639	-0.0635	6.953516	0.08978
24	15.59723	0.0149989	-0.0639	-0.0635	6.953407	0.08844
25	15.59801	0.0153125	-0.0608	-0.0605	6.953213	0.09025
26	15.59879	0.0149927	-0.0578	-0.0575	6.953175	0.08840
27	15.59938	0.0144867	-0.0669	-0.0666	6.953211	0.08548
28	15.60010	0.0146978	-0.0608	-0.0605	6.953052	0.08670
29	15.60023	0.0145084	-0.0608	-0.0605	6.953079	0.08560
30	15.60108	0.0140615	-0.0699	-0.0696	6.953061	0.08303
31	15.60154	0.4409463	-0.0212	-0.0210	6.833904	2.91660
32	15.57802	2.5895025	0.1037	0.1032	6.171604	19.71552
33	15.53682	2.7586715	0.2927	0.2911	6.122781	21.15667
34	15.48317	2.8074766	0.4602	0.4577	6.113055	21.59786
35	15.41465	2.8192220	0.6156	0.6123	6.116550	21.73490
36	15.35962	2.8086325	0.7193	0.7153	6.125706	21.67526
37	15.32245	2.8075610	0.7345	0.7305	6.129971	21.68659
38	15.30598	2.8075315	0.7254	0.7214	6.131720	21.69539
39	15.30132	2.7983652	0.7314	0.7273	6.135133	21.62005
40	15.29542	2.8038081	0.7619	0.7577	6.134023	21.66954
41	15.27547	2.8184406	0.8047	0.8003	6.131467	21.80500
42	15.25074	2.8231979	0.8350	0.8304	6.132560	21.85920
43	15.22946	2.8214064	0.8472	0.8425	6.135380	21.85574
44	15.21724	2.8227532	0.8351	0.8305	6.136241	21.87401
45	15.20632	2.8254117	0.7984	0.7940	6.136544	21.90276
46	15.19372	2.8342602	0.7467	0.7426	6.135042	21.98530
47	15.17809	2.8350210	0.7162	0.7123	6.136448	22.00054
48	15.16395	2.8356926	0.7375	0.7335	6.137726	22.01418
49	15.15833	2.8349915	0.7558	0.7517	6.138544	22.01132
50	15.15788	2.8331614	0.7681	0.7638	6.139179	21.99594
51	15.15801	2.8351044	0.7711	0.7669	6.138542	22.01247
52	15.15646	2.8345696	0.7528	0.7487	6.138877	22.00877
53	15.15407	2.8375531	0.7406	0.7365	6.138172	22.03560
54	15.15278	2.8398065	0.7436	0.7395	6.137585	22.05558
55	15.15356	2.8403178	0.7710	0.7668	6.137340	22.05951
56	15.15401	2.8397232	0.8015	0.7971	6.137483	22.05417
57	15.15446	2.8283032	0.8198	0.8153	6.141100	21.95634
58	15.15588	2.8214071	0.8168	0.8123	6.143162	21.89665
59	15.15853	2.8218876	0.7955	0.7911	6.142728	21.89929
60	15.16517	2.8323177	0.7680	0.7638	6.138679	21.98466
61	15.16840	2.8359184	0.7467	0.7426	6.137183	22.01361
62	15.16311	2.8378622	0.7650	0.7607	6.137119	22.03317
63	15.15285	2.8384271	0.7772	0.7729	6.138022	22.04375
64	15.14730	2.8354432	0.7925	0.7882	6.139566	22.02135
65	15.14575	2.8252461	0.7955	0.7911	6.143002	21.93509
66	15.14504	2.8216622	0.7772	0.7729	6.144228	21.90488
67	15.14427	2.8232107	0.7620	0.7578	6.143813	21.91854
68	15.14762	2.8319258	0.7558	0.7517	6.140660	21.99112
69	15.14801	2.8375829	0.7497	0.7456	6.138803	22.03925
70	15.14594	2.8393011	0.7436	0.7395	6.138470	22.05510
71	15.14556	2.8409364	0.7558	0.7517	6.137986	22.06929
72	15.14433	2.8417809	0.7803	0.7760	6.137845	22.07719
73	15.14330	2.8402287	0.7985	0.7941	6.138452	22.06449
74	15.14414	2.8306904	0.8168	0.8123	6.141426	21.98250
75	15.14381	2.8262552	0.8319	0.8274	6.142884	21.94478
76	15.14530	2.8236201	0.8320	0.8274	6.143573	21.92144
77	15.15085	2.8250205	0.8076	0.8032	6.142535	21.93032
78	15.15723	2.8309160	0.7711	0.7669	6.139968	21.97712
79	15.16175	2.8363702	0.7223	0.7183	6.137740	22.02120
80	15.16188	2.8393544	0.6827	0.6790	6.136769	22.04663
81	15.15640	2.8407935	0.6645	0.6608	6.136886	22.06201
82	15.15143	2.8419533	0.6980	0.6942	6.137039	22.07470
83	15.15214	2.8425720	0.7711	0.7669	6.136767	22.07957
84	15.15749	2.8345993	0.8504	0.8457	6.138760	22.00842
85	15.16137	2.8268189	0.8991	0.8942	6.140846	21.93979
86	15.16466	2.8256970	0.9143	0.9093	6.140858	21.92837
87	15.17305	2.8271275	0.8960	0.8911	6.139512	21.93591
88	15.18106	2.8292886	0.8321	0.8275	6.137972	21.94991
89	15.18635	2.8314503	0.7467	0.7426	6.136719	21.96543
90	15.18894	2.8297635	0.6614	0.6578	6.136986	21.94961
91	15.18448	2.8345158	0.6249	0.6214	6.135934	21.99268
92	15.17311	2.8395268	0.6736	0.6699	6.135528	22.04181
93	15.16453	2.8417272	0.7681	0.7639	6.135730	22.06540
94	15.16111	2.8375234	0.8290	0.8245	6.137440	22.03138
95	15.15969	2.8310585	0.8625	0.8577	6.139664	21.97694
96	15.15995	2.8309160	0.8777	0.8729	6.139682	21.97557
97	15.16608	2.8314208	0.8473	0.8426	6.138872	21.97647
98	15.17189	2.8338089	0.7924	0.7881	6.137492	21.99363
99	15.17518	2.8347120	0.7437	0.7396	6.136854	21.99952
100	15.17531	2.8347358	0.7193	0.7154	6.136833	21.99965
101	15.16995	2.8347655	0.7072	0.7033	6.137389	22.00291
102	15.16569	2.8346824	0.7193	0.7154	6.137866	22.00458
103	15.16375	2.8350211	0.7406	0.7366	6.137962	22.00855
104	15.16130	2.8348785	0.7802	0.7759	6.138267	22.00869
105	15.15982	2.8327990	0.8137	0.8093	6.139091	21.99175
106	15.15982	2.8308031	0.8382	0.8336	6.139732	21.97469
107	15.16756	2.8308031	0.8412	0.8365	6.138913	21.97037
108	15.17615	2.8314741	0.8199	0.8154	6.137790	21.97131
109	15.18119	2.8327156	0.8017	0.7972	6.136860	21.97910
110	15.18377	2.8340048	0.7772	0.7730	6.136174	21.98867
111	15.18151	2.8344267	0.7620	0.7579	6.136277	21.99354
112	15.16563	2.8345398	0.7559	0.7518	6.137919	22.00339
113	15.15736	2.8343140	0.7559	0.7518	6.138864	22.00608
114	15.15530	2.8340348	0.7559	0.7518	6.139172	22.00485
115	15.15259	2.8341774	0.7589	0.7547	6.139412	22.00758
116	15.14762	2.8339517	0.7711	0.7668	6.140010	22.00843
117	15.14381	2.8329655	0.7803	0.7760	6.140729	22.00213
118	15.13917	2.8319853	0.7925	0.7881	6.141535	21.99635
119	15.14298	2.8316170	0.7955	0.7912	6.141251	21.99107
120	15.15562	2.8319555	0.7924	0.7881	6.139805	21.98689
121	15.16485	2.8328821	0.7864	0.7821	6.138532	21.98965
122	15.17111	2.8346823	0.7772	0.7729	6.137293	22.00153
123	15.17292	2.8355559	0.7864	0.7821	6.136823	22.00798
124	15.17014	2.8345397	0.7925	0.7882	6.137442	22.00085
125	15.16672	2.8314742	0.7985	0.7942	6.138786	21.97658
126	15.16459	2.8304942	0.7803	0.7760	6.139325	21.96940
127	15.17357	2.8312247	0.7438	0.7397	6.138142	21.97064
128	15.18112	2.8331909	0.7193	0.7154	6.136714	21.98321
129	15.18306	2.8345990	0.7286	0.7246	6.136058	21.99415
130	15.16537	2.8361206	0.7834	0.7791	6.137439	22.01703
131	15.11628	2.8364301	0.8383	0.8336	6.142528	22.04716
132	15.07415	2.8325978	0.8596	0.8548	6.148220	22.03799
133	15.05033	2.8309170	0.8535	0.8488	6.151286	22.03696
134	15.06140	2.8310000	0.8169	0.8124	6.150085	22.03147
135	15.09083	2.8323184	0.7529	0.7488	6.146543	22.02627
136	15.11512	2.8343738	0.6950	0.6912	6.143310	22.03026
137	15.12498	2.8344035	0.6828	0.6791	6.142257	22.02499
138	15.09514	2.8373575	0.7225	0.7185	6.144464	22.06698
139	15.04203	2.8396707	0.7834	0.7791	6.149340	22.11665
140	14.99858	2.8403431	0.8322	0.8276	6.153728	22.14690
141	14.96955	2.8360332	0.8474	0.8427	6.158202	22.12629
142	14.95081	2.8332762	0.8474	0.8427	6.161086	22.11318
143	14.94735	2.8324089	0.8230	0.8185	6.161735	22.10769
144	14.97655	2.8331928	0.7834	0.7791	6.158378	22.09798
145	15.00802	2.8359794	0.7621	0.7579	6.154137	22.10416
146	15.02467	2.8376138	0.7468	0.7427	6.151843	22.10880
147	15.03052	2.8379764	0.7376	0.7336	6.151106	22.10862
148	15.03174	2.8378396	0.7377	0.7336	6.151021	22.10676
149	15.02570	2.8386541	0.7590	0.7548	6.151399	22.11714
150	15.01368	2.8391596	0.7622	0.7580	6.152509	22.12825
151	15.00353	2.8380896	0.7651	0.7609	6.153932	22.12479
152	15.00147	2.8369066	0.7743	0.7700	6.154532	22.11580
153	15.00185	2.8369899	0.7896	0.7852	6.154464	22.11630
154	15.00211	2.8380599	0.8078	0.8033	6.154091	22.12533
155	15.00430	2.8398673	0.8291	0.8246	6.153276	22.13959
156	15.00410	2.8404858	0.8444	0.8398	6.153096	22.14500
157	15.00346	2.8379469	0.8505	0.8458	6.153985	22.12358
158	15.00558	2.8344046	0.8383	0.8336	6.154905	22.09201
159	15.01657	2.8335608	0.8048	0.8004	6.154012	22.07860
160	15.04506	2.8333644	0.7529	0.7488	6.151054	22.06091
161	15.07164	2.8354142	0.7103	0.7064	6.147577	22.06355
162	15.08657	2.8367929	0.6890	0.6852	6.145552	22.06697
163	15.09231	2.8382849	0.6799	0.6761	6.144465	22.07653
164	15.09224	2.8385941	0.7011	0.6973	6.144373	22.07920
165	15.06282	2.8406576	0.7469	0.7428	6.146822	22.11341
166	15.01413	2.8442687	0.8079	0.8034	6.150811	22.17181
167	14.97308	2.8456258	0.8505	0.8459	6.154722	22.20666
168	14.94690	2.8399214	0.8901	0.8852	6.159348	22.17246
169	14.93228	2.8354155	0.8963	0.8914	6.162362	22.14201
170	14.93369	2.8343161	0.8688	0.8641	6.162569	22.13177
171	14.97295	2.8341791	0.8170	0.8125	6.158441	22.10846
172	15.01792	2.8369897	0.7348	0.7307	6.152760	22.10726
173	15.04384	2.8405151	0.6555	0.6519	6.148876	22.12290
174	15.05400	2.8399798	0.6342	0.6307	6.147972	22.11260
175	15.03689	2.8461905	0.6647	0.6611	6.147780	22.17547
176	14.98592	2.8504056	0.7318	0.7278	6.151813	22.24046
177	14.93875	2.8519901	0.7958	0.7914	6.156298	22.28084
178	14.90004	2.8515378	0.8445	0.8398	6.160551	22.29896
179	14.87468	2.8444069	0.8689	0.8642	6.165563	22.25199
180	14.85912	2.8410818	0.8718	0.8671	6.168299	22.23219
181	14.85650	2.8402611	0.8597	0.8550	6.168845	22.22661
182	14.88665	2.8404571	0.8323	0.8278	6.165574	22.21120
183	14.92465	2.8409384	0.8110	0.8065	6.161380	22.19382
184	14.95178	2.8416995	0.7805	0.7762	6.158253	22.18501
185	14.97289	2.8421513	0.7348	0.7307	6.155866	22.17696
186	14.98567	2.8426032	0.6891	0.6854	6.154364	22.17363
187	14.99556	2.8451733	0.6495	0.6459	6.152484	22.19011
188	15.00185	2.8466431	0.6648	0.6611	6.151342	22.19916
189	15.00160	2.8463277	0.7440	0.7399	6.151472	22.19658
190	14.96936	2.8495245	0.8201	0.8156	6.153854	22.24227
191	14.92657	2.8511684	0.8811	0.8763	6.157857	22.28067
192	14.89273	2.8483406	0.9055	0.9005	6.162366	22.27558
193	14.87429	2.8441392	0.9055	0.9005	6.165691	22.24989
194	14.87090	2.8436751	0.8506	0.8459	6.166202	22.24784
195	14.90055	2.8438711	0.7623	0.7581	6.162987	22.23271
196	14.93612	2.8448882	0.6648	0.6611	6.158878	22.22131
197	14.95986	2.8470363	0.6221	0.6187	6.155664	22.22633
198	14.96878	2.8473755	0.6739	0.6702	6.154609	22.22417
199	14.93888	2.8508586	0.7593	0.7551	6.156651	22.27105
200	14.89587	2.8522466	0.8263	0.8217	6.160762	22.30743
201	14.86354	2.8502936	0.8629	0.8581	6.164830	22.30902
202	14.84454	2.8477457	0.8691	0.8643	6.167680	22.29789
203	14.83405	2.8470375	0.8354	0.8309	6.169026	22.29777
204	14.84326	2.8476624	0.7806	0.7763	6.167842	22.29793
205	14.85836	2.8498351	0.7440	0.7399	6.165529	22.30806
206	14.86994	2.8506865	0.7441	0.7400	6.164021	22.30879
207	14.87423	2.8509961	0.7654	0.7612	6.163466	22.30901
208	14.86450	2.8513357	0.7898	0.7854	6.164388	22.31747
209	14.84895	2.8513656	0.7929	0.7885	6.166030	22.32659
210	14.84089	2.8500080	0.7897	0.7854	6.167329	22.31949
211	14.83546	2.8495555	0.7715	0.7673	6.168055	22.31870
212	14.83610	2.8510560	0.7563	0.7521	6.167497	22.33127
213	14.84019	2.8528665	0.7533	0.7491	6.166472	22.34454
214	14.83584	2.8545703	0.7807	0.7764	6.166379	22.36171
215	14.82676	2.8557024	0.8234	0.8189	6.166975	22.37665
216	14.82018	2.8539747	0.8355	0.8310	6.168238	22.36551
217	14.81711	2.8507168	0.8294	0.8249	6.169627	22.33916
218	14.81557	2.8487937	0.7837	0.7794	6.170418	22.32346
219	14.83251	2.8501748	0.7350	0.7310	6.168165	22.32572
220	14.85490	2.8532357	0.7259	0.7219	6.164789	22.33933
221	14.86495	2.8550228	0.7350	0.7310	6.163140	22.34900
222	14.85605	2.8561550	0.7533	0.7492	6.163716	22.36383
223	14.83846	2.8571801	0.7868	0.7825	6.165250	22.38271
224	14.82350	2.8574068	0.8051	0.8007	6.166765	22.39322
225	14.81551	2.8554463	0.8234	0.8189	6.168254	22.38087
226	14.81142	2.8529800	0.8356	0.8310	6.169494	22.36193
227	14.80676	2.8514791	0.8234	0.8189	6.170480	22.35165
228	14.81270	2.8506751	0.8021	0.7977	6.170110	22.34133
229	14.83469	2.8508000	0.7655	0.7613	6.167730	22.32986
230	14.85676	2.8532059	0.7412	0.7371	6.164601	22.33801
231	14.86732	2.8545402	0.7381	0.7341	6.163046	22.34349
232	14.87007	2.8558152	0.7504	0.7462	6.162339	22.35290
233	14.86540	2.8566376	0.7839	0.7796	6.162568	22.36264
234	14.85656	2.8570072	0.8022	0.7978	6.163385	22.37087
235	14.84460	2.8557022	0.8144	0.8099	6.165080	22.36645
236	14.83961	2.8535456	0.8022	0.7978	6.166312	22.35071
237	14.83571	2.8522173	0.7778	0.7735	6.167160	22.34149
238	14.84678	2.8532357	0.7473	0.7432	6.165652	22.34397
239	14.86239	2.8551062	0.7413	0.7372	6.163385	22.35118
240	14.86949	2.8565839	0.7626	0.7584	6.162150	22.35985
241	14.86386	2.8573766	0.7991	0.7947	6.162490	22.36988
242	14.84850	2.8579429	0.8235	0.8190	6.163936	22.38353
243	14.83590	2.8560420	0.8357	0.8311	6.165893	22.37435
244	14.82983	2.8540044	0.8296	0.8251	6.167203	22.36025
245	14.82535	2.8527237	0.8145	0.8100	6.168096	22.35177
246	14.83488	2.8522173	0.7809	0.7766	6.167248	22.34197
247	14.85529	2.8524435	0.7535	0.7493	6.165006	22.33228
248	14.87244	2.8544567	0.7413	0.7372	6.162530	22.33985
249	14.88108	2.8557615	0.7413	0.7372	6.161188	22.34615
250	14.88326	2.8571201	0.7474	0.7432	6.160515	22.35661
251	14.88262	2.8575731	0.7626	0.7584	6.160436	22.36087
252	14.87391	2.8578891	0.7810	0.7767	6.161257	22.36856
253	14.85676	2.8583780	0.7962	0.7918	6.162918	22.38257
254	14.84057	2.8586285	0.8206	0.8161	6.164554	22.39398
255	14.83149	2.8571504	0.8297	0.8251	6.166000	22.38643
256	14.83130	2.8553329	0.8297	0.8251	6.166613	22.37087
257	14.83047	2.8540282	0.8115	0.8071	6.167127	22.36009
258	14.84083	2.8533490	0.7779	0.7736	6.166247	22.34833
259	14.85938	2.8543973	0.7414	0.7373	6.163935	22.34678
260	14.87282	2.8564706	0.7322	0.7282	6.161833	22.35698
261	14.87941	2.8585983	0.7413	0.7373	6.160442	22.37154
262	14.87692	2.8596177	0.7809	0.7766	6.160376	22.38174
263	14.86047	2.8603571	0.8237	0.8191	6.161880	22.39750
264	14.84415	2.8570073	0.8328	0.8283	6.164702	22.37795
265	14.83405	2.8549635	0.8267	0.8222	6.166442	22.36611
266	14.83117	2.8541175	0.8054	0.8010	6.167023	22.36046
267	14.84607	2.8544808	0.7719	0.7677	6.165321	22.35509
268	14.86124	2.8564708	0.7536	0.7495	6.163063	22.36359
269	14.86892	2.8580023	0.7505	0.7464	6.161749	22.37240
270	14.87071	2.8594210	0.7659	0.7617	6.161098	22.38359
271	14.86706	2.8602140	0.7872	0.7829	6.161227	22.39251
272	14.85337	2.8608998	0.8176	0.8131	6.162457	22.40625
273	14.83846	2.8590815	0.8390	0.8344	6.164631	22.39909
274	14.83066	2.8561016	0.8268	0.8223	6.166431	22.37786
275	14.82766	2.8548265	0.7963	0.7920	6.167165	22.36859
276	14.84594	2.8549157	0.7628	0.7586	6.165193	22.35892
277	14.86700	2.8573765	0.7354	0.7314	6.162157	22.36811
278	14.87692	2.8589917	0.7354	0.7314	6.160579	22.37636
279	14.87596	2.8597608	0.7598	0.7556	6.160431	22.38352
280	14.86911	2.8603868	0.7873	0.7829	6.160954	22.39283
281	14.84978	2.8612933	0.8208	0.8163	6.162709	22.41169
282	14.83450	2.8585987	0.8329	0.8283	6.165209	22.39720
283	14.82638	2.8563817	0.8269	0.8223	6.166794	22.38273
284	14.82452	2.8556726	0.7934	0.7890	6.167222	22.37768
285	14.84019	2.8559883	0.7721	0.7679	6.165455	22.37145
286	14.85727	2.8581991	0.7538	0.7496	6.162921	22.38075
287	14.86629	2.8600768	0.7599	0.7557	6.161353	22.39177
288	14.86828	2.8602140	0.7934	0.7890	6.161098	22.39181
289	14.85413	2.8604407	0.8209	0.8164	6.162525	22.40185
290	14.83750	2.8595942	0.8361	0.8315	6.164566	22.40406
291	14.82861	2.8572935	0.8483	0.8437	6.166259	22.38930
292	14.82363	2.8561255	0.8300	0.8255	6.167170	22.38209
293	14.83584	2.8558989	0.7873	0.7829	6.165946	22.37316
294	14.85804	2.8563576	0.7203	0.7163	6.163439	22.36445
295	14.87513	2.8578890	0.6868	0.6830	6.161127	22.36789
296	14.88364	2.8578591	0.6868	0.6830	6.160234	22.36277
297	14.87673	2.8563097	0.7417	0.7376	6.161472	22.35336
298	14.85433	2.8548501	0.7935	0.7891	6.164325	22.35356
299	14.83226	2.8545405	0.8423	0.8376	6.166770	22.36348
300	14.81775	2.8552199	0.8576	0.8529	6.168090	22.37763
301	14.80969	2.8558158	0.8758	0.8710	6.168752	22.38737
302	14.81347	2.8558753	0.8606	0.8559	6.168332	22.38574
303	14.83111	2.8559288	0.8028	0.7983	6.166439	22.37612
304	14.84761	2.8556724	0.7631	0.7589	6.164770	22.36449
305	14.85637	2.8550765	0.7448	0.7407	6.164033	22.35435
306	14.85893	2.8550526	0.7449	0.7408	6.163769	22.35269
307	14.85919	2.8556187	0.7540	0.7499	6.163558	22.35741
308	14.84978	2.8559584	0.7662	0.7619	6.164446	22.36571
309	14.83590	2.8561850	0.7723	0.7681	6.165846	22.37560
310	14.82823	2.8562148	0.7906	0.7863	6.166651	22.38024
311	14.82542	2.8562149	0.7998	0.7954	6.166950	22.38184
312	14.82229	2.8564413	0.8029	0.7984	6.167209	22.38559
313	14.81896	2.8565844	0.8150	0.8105	6.167516	22.38872
314	14.81711	2.8564116	0.8241	0.8196	6.167769	22.38829
315	14.81545	2.8562686	0.8181	0.8136	6.167992	22.38801
316	14.81487	2.8563818	0.8027	0.7983	6.168016	22.38932
317	14.82452	2.8565843	0.7754	0.7712	6.166925	22.38555
318	14.83744	2.8565842	0.7663	0.7620	6.165553	22.37816
319	14.84614	2.8564709	0.7511	0.7470	6.164666	22.37222
320	14.84857	2.8565543	0.7602	0.7561	6.164381	22.37154
321	14.84710	2.8565007	0.7906	0.7863	6.164555	22.37192
322	14.83859	2.8563280	0.8364	0.8318	6.165515	22.37528
323	14.82682	2.8564115	0.8577	0.8530	6.166737	22.38272
324	14.82075	2.8563281	0.8638	0.8591	6.167410	22.38547
325	14.81724	2.8561017	0.8394	0.8348	6.167857	22.38554
326	14.82005	2.8560421	0.7907	0.7863	6.167577	22.38343
327	14.83290	2.8560122	0.7451	0.7410	6.166221	22.37583
328	14.84633	2.8559882	0.6933	0.6894	6.164802	22.36796
329	14.85529	2.8558987	0.6842	0.6804	6.163880	22.36208
330	14.86040	2.8559583	0.7146	0.7107	6.163318	22.35966
331	14.85573	2.8547667	0.7847	0.7804	6.164202	22.35204
332	14.84019	2.8532954	0.8456	0.8410	6.166333	22.34821
333	14.82574	2.8534623	0.8792	0.8744	6.167815	22.35790
334	14.81692	2.8546837	0.8823	0.8774	6.168354	22.37347
335	14.80982	2.8554464	0.8700	0.8653	6.168859	22.38412
336	14.80848	2.8558992	0.8396	0.8350	6.168853	22.38880
337	14.81839	2.8559289	0.7878	0.7835	6.167791	22.38340
338	14.83117	2.8559884	0.7452	0.7411	6.166412	22.37661
339	14.84198	2.8560121	0.7177	0.7138	6.165256	22.37065
340	14.85017	2.8557617	0.7148	0.7108	6.164469	22.36381
341	14.85522	2.8544271	0.7268	0.7229	6.164367	22.34942
342	14.85720	2.8538016	0.7605	0.7563	6.164360	22.34289
343	14.85682	2.8542305	0.8001	0.7957	6.164262	22.34679
344	14.84902	2.8544570	0.8244	0.8198	6.165017	22.35319
345	14.83597	2.8549397	0.8397	0.8351	6.166246	22.36480
346	14.82881	2.8551900	0.8367	0.8321	6.166925	22.37106
347	14.82542	2.8554164	0.8092	0.8048	6.167211	22.37495
348	14.83315	2.8556189	0.7940	0.7897	6.166323	22.37228
349	14.84390	2.8551898	0.7849	0.7806	6.165321	22.36244
350	14.84966	2.8548263	0.8031	0.7987	6.164828	22.35602
351	14.85138	2.8548263	0.8154	0.8109	6.164645	22.35503
352	14.85093	2.8549634	0.8154	0.8109	6.164648	22.35646
353	14.85093	2.8553625	0.7910	0.7867	6.164518	22.35991
354	14.85337	2.8555055	0.7515	0.7473	6.164213	22.35977
355	14.85976	2.8551896	0.7057	0.7018	6.163636	22.35340
356	14.86463	2.8548798	0.7057	0.7018	6.163220	22.34796
357	14.86488	2.8532356	0.7606	0.7564	6.163729	22.33363
358	14.85202	2.8481980	0.8337	0.8291	6.166736	22.29754
359	14.83507	2.8483411	0.8855	0.8806	6.168492	22.30841
360	14.82369	2.8530394	0.9038	0.8988	6.168170	22.35541
361	14.81736	2.8540045	0.8733	0.8685	6.168528	22.36736
362	14.82420	2.8536589	0.7972	0.7928	6.167913	22.36049
363	14.83686	2.8515384	0.7149	0.7110	6.167258	22.33500
364	14.84492	2.8502342	0.6845	0.6807	6.166826	22.31917
365	14.84633	2.8498352	0.6997	0.6959	6.166807	22.31493
366	14.83629	2.8470077	0.7454	0.7413	6.168796	22.29627
367	14.82452	2.8457938	0.7912	0.7868	6.170444	22.29249
368	14.81564	2.8459069	0.8217	0.8171	6.171353	22.29852
369	14.81021	2.8476865	0.8399	0.8353	6.171351	22.31696
370	14.80682	2.8489902	0.8460	0.8414	6.171286	22.33014
371	14.80401	2.8495558	0.8613	0.8565	6.171400	22.33662
372	14.80177	2.8500084	0.8400	0.8354	6.171490	22.34181
373	14.80056	2.8516519	0.8095	0.8051	6.171082	22.35669
374	14.80407	2.8522176	0.7760	0.7717	6.170523	22.35957
375	14.81704	2.8519316	0.7455	0.7414	6.169237	22.34970
376	14.82842	2.8496985	0.6937	0.6899	6.168755	22.32396
377	14.83469	2.8487161	0.6846	0.6808	6.168409	22.31192
378	14.83290	2.8451986	0.7212	0.7173	6.169746	22.28261
379	14.82145	2.8431104	0.8065	0.8021	6.171646	22.27110
380	14.80944	2.8427715	0.8675	0.8627	6.173037	22.27500
381	14.80101	2.8443243	0.8918	0.8869	6.173429	22.29319
382	14.79628	2.8475736	0.9011	0.8961	6.172871	22.32392
383	14.79455	2.8477998	0.8798	0.8749	6.172980	22.32686
384	14.80216	2.8471807	0.8096	0.8052	6.172372	22.31720
385	14.81270	2.8459664	0.7151	0.7112	6.171646	22.30074
386	14.81947	2.8454843	0.6573	0.6537	6.171081	22.29274
387	14.82203	2.8453712	0.6664	0.6627	6.170846	22.29030
388	14.81609	2.8423193	0.7244	0.7204	6.172475	22.26736
389	14.80912	2.8415580	0.7884	0.7840	6.173466	22.26474
390	14.80471	2.8421826	0.8341	0.8295	6.173733	22.27263
391	14.80184	2.8444671	0.8614	0.8567	6.173293	22.29396
392	14.80005	2.8452882	0.8554	0.8507	6.173215	22.30206
393	14.80113	2.8453120	0.8402	0.8356	6.173092	22.30165
394	14.80529	2.8453417	0.8219	0.8174	6.172640	22.29955
395	14.80848	2.8451750	0.8067	0.8022	6.172354	22.29629
396	14.81085	2.8450322	0.7884	0.7840	6.172149	22.29372
397	14.81193	2.8449727	0.7671	0.7629	6.172052	22.29259
398	14.81289	2.8447228	0.7489	0.7448	6.172031	22.28990
399	14.81359	2.8442111	0.7458	0.7417	6.172124	22.28508
400	14.81347	2.8436221	0.7458	0.7417	6.172329	22.28008
401	14.81378	2.8435626	0.7701	0.7659	6.172315	22.27938
402	14.81193	2.8431402	0.8098	0.8053	6.172651	22.27678
403	14.80816	2.8425454	0.8432	0.8386	6.173247	22.27379
404	14.80452	2.8429678	0.8586	0.8539	6.173497	22.27950
405	14.80267	2.8440446	0.8494	0.8448	6.173343	22.28985
406	14.80158	2.8447467	0.8374	0.8328	6.173229	22.29652
407	14.80420	2.8450323	0.8007	0.7963	6.172856	22.29750
408	14.80931	2.8445205	0.7794	0.7751	6.172479	22.29018
409	14.81263	2.8435923	0.7550	0.7509	6.172428	22.28029
410	14.81404	2.8433960	0.7337	0.7296	6.172342	22.27780
411	14.81462	2.8433365	0.7337	0.7297	6.172300	22.27696
412	14.81347	2.8432830	0.7519	0.7478	6.172440	22.27715
413	14.81168	2.8427476	0.7825	0.7782	6.172806	22.27355
414	14.80963	2.8422064	0.8190	0.8145	6.173201	22.27003
415	14.80880	2.8423491	0.8343	0.8297	6.173243	22.27173
416	14.80893	2.8436459	0.8374	0.8328	6.172806	22.28284
417	14.80874	2.8442706	0.8344	0.8298	6.172622	22.28834
418	14.80886	2.8448061	0.8252	0.8207	6.172434	22.29289
419	14.81097	2.8449727	0.8100	0.8055	6.172155	22.29313
420	14.81410	2.8450619	0.7734	0.7692	6.171792	22.29212
421	14.81653	2.8449726	0.7553	0.7511	6.171562	22.28997
422	14.81775	2.8440444	0.7369	0.7328	6.171736	22.28128
423	14.81788	2.8432829	0.7430	0.7389	6.171971	22.27464
424	14.81762	2.8427476	0.7553	0.7511	6.172173	22.27017
425	14.81768	2.8422658	0.7887	0.7843	6.172323	22.26597
426	14.81922	2.8417007	0.8252	0.8207	6.172345	22.26022
427	14.82101	2.8421527	0.8528	0.8481	6.172007	22.26309
428	14.82171	2.8435328	0.8527	0.8480	6.171482	22.27458
429	14.82190	2.8442408	0.8345	0.8299	6.171230	22.28058
430	14.82222	2.8444966	0.8101	0.8056	6.171113	22.28261
431	14.82324	2.8442407	0.7827	0.7784	6.171087	22.27983
432	14.82414	2.8431104	0.7735	0.7693	6.171360	22.26958
433	14.82433	2.8427475	0.7706	0.7664	6.171458	22.26635
434	14.82427	2.8424620	0.7735	0.7693	6.171558	22.26392
435	14.82401	2.8425215	0.7675	0.7633	6.171566	22.26458
436	14.82420	2.8428010	0.7705	0.7663	6.171454	22.26688
437	14.82420	2.8427475	0.7736	0.7694	6.171472	22.26642
438	14.82433	2.8424917	0.7767	0.7725	6.171542	22.26414
439	14.82420	2.8420694	0.8011	0.7967	6.171693	22.26057
440	14.82497	2.8414746	0.8438	0.8392	6.171806	22.25499
441	14.82772	2.8417542	0.8650	0.8603	6.171422	22.25583
442	14.83047	2.8427475	0.8377	0.8331	6.170805	22.26284
443	14.83168	2.8431401	0.8042	0.7998	6.170548	22.26554
444	14.83207	2.8435089	0.7677	0.7634	6.170386	22.26851
445	14.83175	2.8434791	0.7250	0.7210	6.170430	22.26844
446	14.83143	2.8427177	0.7128	0.7089	6.170712	22.26207
447	14.83092	2.8422359	0.7403	0.7362	6.170924	22.25820
448	14.83047	2.8415578	0.7585	0.7543	6.171193	22.25260
449	14.83111	2.8411058	0.7920	0.7877	6.171272	22.24834
450	14.83552	2.8408798	0.8347	0.8301	6.170877	22.24387
451	14.84153	2.8409392	0.8592	0.8545	6.170218	22.24096
452	14.84556	2.8422655	0.8683	0.8635	6.169357	22.25009
453	14.84735	2.8432827	0.8591	0.8544	6.168835	22.25784
454	14.84703	2.8437051	0.8316	0.8270	6.168731	22.26167
455	14.84409	2.8436218	0.7890	0.7847	6.169070	22.26264
456	14.84083	2.8435088	0.7494	0.7453	6.169454	22.26353
457	14.83865	2.8426879	0.7191	0.7152	6.169953	22.25770
458	14.83737	2.8421823	0.7190	0.7151	6.170253	22.25407
459	14.83737	2.8423488	0.7525	0.7484	6.170200	22.25550
460	14.84492	2.8422655	0.7770	0.7727	6.169424	22.25048
461	14.85874	2.8424081	0.8013	0.7969	6.167907	22.24385
462	14.86815	2.8427709	0.8074	0.8030	6.166789	22.24163
463	14.87410	2.8427708	0.7952	0.7909	6.166156	22.23825
464	14.87429	2.8424080	0.8014	0.7970	6.166253	22.23501
465	14.87346	2.8420392	0.8380	0.8333	6.166462	22.23230
466	14.87609	2.8419559	0.8685	0.8637	6.166211	22.23009
467	14.87986	2.8423187	0.8624	0.8576	6.165691	22.23107
468	14.88204	2.8427708	0.8319	0.8273	6.165312	22.23373
469	14.87897	2.8429671	0.7770	0.7728	6.165574	22.23718
470	14.86975	2.8427471	0.6978	0.6939	6.166625	22.24054
471	14.86213	2.8421523	0.6430	0.6395	6.167628	22.23976
472	14.85797	2.8421523	0.6552	0.6516	6.168071	22.24212
473	14.86738	2.8419560	0.7191	0.7152	6.167135	22.23507
474	14.89402	2.8421818	0.8137	0.8092	6.164230	22.22187
475	14.92779	2.8424611	0.8868	0.8819	6.160553	22.20511
476	14.95235	2.8419255	0.9448	0.9396	6.158120	22.18658
477	14.96679	2.8416696	0.9478	0.9426	6.156671	22.17622
478	14.97411	2.8418658	0.9112	0.9062	6.155831	22.17377
479	14.96166	2.8418957	0.8442	0.8396	6.157141	22.18109
480	14.94395	2.8416460	0.7435	0.7394	6.159100	22.18899
481	14.93176	2.8412179	0.6674	0.6638	6.160532	22.19223
482	14.92375	2.8415034	0.6279	0.6244	6.161290	22.19923
483	14.92272	2.8418960	0.6522	0.6487	6.161272	22.20318
484	14.93875	2.8424312	0.7132	0.7093	6.159397	22.19869
485	14.96069	2.8425321	0.7955	0.7911	6.157037	22.18711
486	14.97957	2.8422940	0.8534	0.8487	6.155113	22.17438
487	14.99299	2.8418121	0.8808	0.8760	6.153846	22.16265
488	15.00134	2.8417288	0.8809	0.8761	6.152988	22.15722
489	15.00044	2.8416158	0.8717	0.8669	6.153120	22.15676
490	14.98509	2.8415564	0.8474	0.8428	6.154766	22.16493
491	14.97084	2.8412770	0.8322	0.8276	6.156368	22.17059
492	14.96159	2.8409916	0.8170	0.8125	6.157441	22.17337
493	14.95652	2.8409381	0.7956	0.7912	6.157996	22.17578
494	14.95402	2.8411939	0.7591	0.7549	6.158178	22.17940
495	14.95344	2.8410214	0.7225	0.7186	6.158295	22.17826
496	14.95344	2.8407657	0.6981	0.6942	6.158377	22.17607
497	14.95306	2.8411344	0.7163	0.7124	6.158299	22.17945
498	14.95447	2.8418957	0.7651	0.7609	6.157903	22.18518
499	14.97122	2.8425201	0.8261	0.8215	6.155924	22.18105
500	14.99036	2.8424069	0.8718	0.8670	6.153933	22.16925
501	15.00166	2.8416455	0.8962	0.8912	6.152981	22.15632
502	15.00770	2.8413897	0.8962	0.8913	6.152423	22.15071
503	15.00995	2.8411934	0.8719	0.8671	6.152248	22.14777
504	14.99903	2.8411043	0.8353	0.8307	6.153434	22.15318
505	14.98271	2.8411044	0.7958	0.7914	6.155164	22.16240
506	14.96814	2.8410510	0.7500	0.7459	6.156726	22.17019
507	14.95896	2.8408251	0.7135	0.7096	6.157773	22.17345
508	14.95370	2.8408787	0.6983	0.6944	6.158314	22.17689
509	14.95081	2.8414437	0.7257	0.7217	6.158437	22.18337
510	14.95640	2.8419254	0.7775	0.7733	6.157689	22.18434
511	14.97321	2.8421216	0.8324	0.8278	6.155842	22.17650
512	14.98907	2.8418419	0.8750	0.8702	6.154252	22.16512
513	15.00205	2.8413897	0.8842	0.8793	6.153023	22.15391
514	15.01104	2.8409674	0.8689	0.8641	6.152206	22.14521
515	15.01092	2.8408247	0.8263	0.8218	6.152265	22.14407
516	14.99575	2.8407653	0.7715	0.7673	6.153891	22.15214
517	14.97976	2.8406584	0.7318	0.7278	6.155621	22.16026
518	14.96852	2.8411640	0.7592	0.7550	6.156649	22.17094
519	14.96718	2.8422941	0.8599	0.8552	6.156427	22.18138
520	14.98477	2.8426033	0.9971	0.9916	6.154463	22.17406
521	15.00899	2.8430790	1.1585	1.1522	6.151744	22.16441
522	15.03084	2.8432216	1.3079	1.3007	6.149385	22.15326
523	15.04101	2.8429658	1.4390	1.4311	6.148393	22.14529
524	15.04293	2.8427160	1.5608	1.5522	6.148270	22.14203
525	15.03830	2.8426030	1.6858	1.6765	6.148798	22.14364
526	15.01959	2.8421214	1.8259	1.8159	6.150937	22.15003
527	14.97918	2.8404566	1.9996	1.9886	6.155760	22.15851
528	14.91708	2.8368246	2.1916	2.1796	6.163533	22.16236
529	14.84748	2.8374138	2.3957	2.3826	6.170749	22.20679
530	14.80164	2.8501518	2.6184	2.6040	6.171475	22.34263
531	14.77489	2.8721188	2.8438	2.8281	6.167144	22.54761
532	14.74215	2.8916638	3.0601	3.0433	6.164221	22.73558
533	14.67831	2.9029329	3.2856	3.2676	6.167289	22.87046
534	14.60873	2.9091169	3.4990	3.4797	6.172627	22.96499
535	14.54937	2.9130303	3.7214	3.7009	6.177630	23.03401
536	14.50614	2.9147478	3.9286	3.9069	6.181652	23.07451
537	14.47612	2.9161952	4.1298	4.1070	6.184362	23.10489
538	14.45575	2.9174687	4.3340	4.3101	6.186106	23.12805
539	14.44284	2.9176490	4.5412	4.5162	6.187420	23.13724
540	14.43418	2.9180816	4.7453	4.7191	6.188199	23.14612
541	14.42811	2.9195655	4.9525	4.9252	6.188353	23.16264
542	14.42325	2.9218609	5.1780	5.1495	6.188110	23.18554
543	14.41863	2.9248003	5.3852	5.3556	6.187624	23.21393
544	14.40587	2.9320600	5.6199	5.5889	6.186566	23.28499
545	14.37644	2.9434354	5.8423	5.8101	6.185901	23.40219
546	14.31628	2.9608645	6.0617	6.0283	6.186462	23.59140
547	14.21554	2.9748107	6.2873	6.2527	6.192462	23.77553
548	14.10650	2.9819177	6.5128	6.4769	6.201633	23.90532
549	14.02203	2.9851590	6.7262	6.6891	6.209510	23.98627
550	13.96028	2.9885891	6.9546	6.9163	6.214916	24.05504
551	13.91807	2.9924026	7.1892	7.1496	6.218112	24.11518
552	13.88649	2.9961450	7.4117	7.3709	6.220200	24.16816
553	13.85618	3.0003079	7.6281	7.5860	6.222007	24.22417
554	13.81534	3.0093084	7.8475	7.8042	6.223277	24.33004
555	13.71309	3.0380470	8.0791	8.0346	6.224280	24.65181
556	13.52647	3.0701459	8.2985	8.2528	6.232996	25.06087
557	13.24914	3.0926059	8.5117	8.4648	6.254629	25.44719
558	12.94093	3.1056962	8.7526	8.7043	6.282901	25.77401
559	12.68778	3.1106380	8.9872	8.9376	6.308306	25.99237
560	12.45870	3.1274795	9.2127	9.1619	6.326868	26.30702
561	12.23884	3.1353157	9.4442	9.3921	6.347767	26.53451
562	12.06981	3.1396385	9.6759	9.6225	6.364514	26.69499
563	11.94897	3.1432589	9.9044	9.8498	6.376317	26.81546
564	11.84271	3.1514058	10.1361	10.0802	6.384837	26.96887
565	11.71159	3.1621980	10.3737	10.3165	6.395063	27.16635
566	11.56300	3.1708970	10.6115	10.5529	6.407995	27.35806
567	11.41505	3.1774151	10.8643	10.8043	6.421707	27.52980
568	11.29436	3.1805371	11.1081	11.0468	6.433762	27.64970
569	11.19435	3.1850257	11.3487	11.2861	6.443026	27.76787
570	11.09472	3.1943571	11.5865	11.5225	6.450353	27.93315
571	10.97459	3.2003336	11.8150	11.7498	6.461257	28.08241
572	10.82528	3.2053188	12.0344	11.9680	6.475793	28.24535
573	10.67034	3.2092983	12.2660	12.1983	6.491387	28.40396
574	10.52382	3.2133730	12.4824	12.4134	6.506042	28.55809
575	10.40509	3.2198182	12.7323	12.6619	6.516660	28.71474
576	10.31583	3.2196696	12.9701	12.8984	6.526691	28.78370
577	10.22682	3.2211544	13.2198	13.1468	6.536042	28.86891
578	10.14916	3.2240989	13.4697	13.3952	6.543534	28.95993
579	10.06773	3.2255783	13.7196	13.6438	6.552063	29.03971
580	9.97634	3.2242506	13.9664	13.8892	6.562892	29.09978
581	9.88074	3.2255804	14.2041	14.1256	6.573111	29.19009
582	9.78405	3.2267794	14.4388	14.3589	6.583527	29.28037
583	9.69599	3.2278287	14.6733	14.5922	6.593047	29.36250
584	9.62512	3.2297704	14.9141	14.8317	6.600258	29.43990
585	9.57154	3.2329175	15.1548	15.0710	6.604999	29.51552
586	9.53321	3.2361343	15.3895	15.3044	6.607982	29.57949
587	9.50349	3.2384524	15.6211	15.5347	6.610369	29.62737
588	9.46998	3.2398463	15.8618	15.7740	6.613581	29.66909
589	9.43418	3.2419467	16.1026	16.0135	6.616752	29.71995
590	9.40178	3.2429411	16.3464	16.2559	6.620010	29.75683
591	9.36951	3.2422288	16.5810	16.4892	6.623988	29.77632
592	9.33044	3.2400293	16.8155	16.7225	6.629384	29.78635
593	9.28927	3.2379303	17.0594	16.9650	6.634986	29.79918
594	9.24643	3.2367875	17.2941	17.1983	6.640371	29.82315
595	9.20584	3.2365069	17.5408	17.4437	6.645133	29.85410
596	9.16880	3.2361389	17.7968	17.6983	6.649533	29.88122
597	9.14325	3.2493671	18.0833	17.9832	6.646709	30.03786
598	9.12955	3.2542736	18.3209	18.2195	6.646143	30.09955
599	9.11092	3.2545243	18.5677	18.4649	6.648163	30.11774
600	9.09543	3.2551443	18.8085	18.7043	6.649666	30.13709
601	9.08475	3.2551445	19.0430	18.9375	6.650888	30.14602
602	9.07348	3.2559586	19.2809	19.1740	6.651825	30.16381
603	9.06560	3.2568917	19.5093	19.4012	6.652321	30.17996
604	9.05997	3.2572988	19.7408	19.6314	6.652791	30.18882
605	9.05822	3.2572927	19.9786	19.8679	6.652997	30.19014
606	9.05849	3.2564223	20.2255	20.1134	6.653351	30.18087
607	9.05844	3.2559278	20.4479	20.3345	6.653577	30.17575
608	9.05849	3.2552705	20.7009	20.5862	6.653862	30.16885
609	9.05581	3.2537807	20.9507	20.8346	6.654823	30.15573
610	9.04438	3.2520972	21.2036	21.0860	6.656870	30.14802
611	9.02126	3.2498011	21.4444	21.3255	6.660523	30.14391
612	8.97299	3.2435974	21.6851	21.5648	6.668777	30.12094
613	8.89301	3.2394481	21.9257	21.8040	6.679794	30.14592
614	8.81461	3.2378744	22.1573	22.0344	6.689521	30.19622
615	8.74851	3.2404121	22.4011	22.2768	6.696023	30.27870
616	8.69797	3.2454952	22.6266	22.5010	6.699600	30.37451
617	8.65778	3.2469216	22.8613	22.7344	6.703608	30.42371
618	8.61757	3.2462404	23.0989	22.9707	6.708561	30.45113
619	8.57665	3.2452466	23.3366	23.2071	6.713742	30.47596
620	8.53178	3.2440653	23.5804	23.4495	6.719472	30.50229
621	8.48248	3.2432657	23.8273	23.6950	6.725552	30.53647
622	8.43863	3.2428911	24.0709	23.9373	6.730814	30.57044
623	8.40123	3.2426165	24.3178	24.1828	6.735288	30.59992
624	8.36182	3.2407856	24.5586	24.4222	6.740705	30.61491
625	8.30131	3.2373558	24.7962	24.6585	6.749317	30.63154
626	8.22380	3.2355014	25.0339	24.8948	6.759215	30.67957
627	8.15772	3.2346340	25.2777	25.1373	6.767345	30.72812
628	8.10424	3.2330610	25.5184	25.3766	6.774337	30.75832
629	8.05184	3.2307204	25.7805	25.6373	6.781567	30.77952
630	8.00447	3.2280371	26.0395	25.8948	6.788378	30.79273
631	7.95752	3.2264965	26.2863	26.1402	6.794621	30.81765
632	7.90813	3.2248750	26.5331	26.3856	6.801199	30.84393
633	7.86305	3.2239710	26.7830	26.6341	6.806945	30.87405
634	7.82459	3.2236971	27.0268	26.8766	6.811621	30.90506
635	7.79507	3.2231424	27.2706	27.1190	6.815376	30.92521
636	7.77240	3.2230367	27.5113	27.3583	6.818112	30.94408
637	7.75731	3.2225567	27.7520	27.5977	6.820128	30.95226
638	7.74255	3.2223760	27.9958	27.8401	6.821966	30.96334
639	7.72504	3.2217278	28.2487	28.0916	6.824349	30.97189
640	7.70923	3.2198824	28.5351	28.3764	6.827095	30.96617
641	7.69242	3.2202505	28.8033	28.6430	6.828921	30.98491
642	7.67271	3.2204378	29.0470	28.8854	6.831177	31.00434
643	7.65507	3.2206127	29.3122	29.1491	6.833193	31.02180
644	7.64071	3.2223464	29.5559	29.3914	6.834086	31.05299
645	7.61882	3.2225899	29.8028	29.6370	6.836576	31.07503
646	7.59493	3.2233574	30.0435	29.8763	6.839057	31.10447
647	7.57458	3.2230957	30.3085	30.1398	6.841603	31.11976
648	7.56146	3.2231770	30.5737	30.4035	6.843130	31.13225
649	7.55609	3.2223477	30.8235	30.6519	6.844166	31.12808
650	7.55046	3.2224351	31.0705	30.8975	6.844800	31.13396
651	7.54003	3.2221609	31.3294	31.1549	6.846175	31.14025
652	7.52708	3.2218868	31.5884	31.4124	6.847852	31.14881
653	7.51550	3.2220678	31.8383	31.6609	6.849149	31.16102
654	7.50524	3.2217936	32.0881	31.9094	6.850506	31.16717
655	7.49620	3.2222490	32.3289	32.1488	6.851372	31.18007
656	7.48852	3.2224051	32.5787	32.3972	6.852217	31.18852
657	7.48200	3.2221308	32.8285	32.6456	6.853129	31.19133
658	7.48053	3.2215136	33.0846	32.9002	6.853603	31.18592
659	7.48142	3.2216695	33.3406	33.1548	6.853427	31.18667
660	7.47921	3.2217257	33.5904	33.4032	6.853669	31.18914
661	7.47138	3.2217945	33.8433	33.6546	6.854575	31.19681
662	7.46024	3.2216700	34.1176	33.9273	6.855967	31.20536
663	7.45215	3.2221628	34.3705	34.1788	6.856702	31.21782
664	7.44558	3.2221941	34.6295	34.4364	6.857476	31.22394
665	7.44054	3.2227181	34.8671	34.6727	6.857832	31.23400
666	7.43708	3.2230862	35.1201	34.9242	6.858075	31.24096
667	7.43083	3.2237911	35.3639	35.1666	6.858489	31.25404
668	7.41503	3.2249703	35.6229	35.4242	6.859817	31.28084
669	7.39335	3.2257005	35.9001	35.6998	6.862058	31.30812
670	7.37683	3.2256384	36.1744	35.9725	6.864065	31.32226
671	7.36498	3.2263498	36.4426	36.2392	6.865144	31.34050
672	7.34779	3.2266683	36.6956	36.4907	6.867049	31.35937
673	7.32794	3.2266249	36.9545	36.7482	6.869446	31.37677
674	7.31129	3.2265378	37.2227	37.0149	6.871482	31.39081
675	7.29925	3.2268437	37.4603	37.2512	6.872779	31.40492
676	7.28988	3.2268439	37.7011	37.4906	6.873903	31.41331
677	7.28365	3.2268128	37.9449	37.7330	6.874667	31.41852
678	7.28323	3.2271187	38.1857	37.9724	6.874576	31.42209
679	7.28402	3.2265385	38.4386	38.2238	6.874765	31.41500
680	7.28601	3.2262016	38.7006	38.4844	6.874695	31.40945
681	7.28737	3.2254904	38.9901	38.7722	6.874880	31.40041
682	7.28407	3.2250913	39.2704	39.0509	6.875471	31.39897
683	7.27487	3.2262893	39.5295	39.3086	6.876002	31.42013
684	7.25651	3.2271694	39.7976	39.5752	6.877780	31.44619
685	7.23884	3.2281993	40.0536	39.8297	6.879403	31.47326
686	7.22463	3.2289734	40.3035	40.0782	6.880736	31.49445
687	7.20995	3.2301408	40.5533	40.3266	6.881934	31.52033
688	7.19439	3.2315893	40.8185	40.5902	6.883103	31.55007
689	7.18113	3.2321202	41.0685	40.8388	6.884438	31.56781
690	7.17091	3.2326136	41.3152	41.0841	6.885429	31.58239
691	7.16209	3.2325514	41.5803	41.3477	6.886520	31.58966
692	7.15479	3.2326764	41.8424	41.6083	6.887339	31.59757
693	7.14931	3.2327702	42.1106	41.8750	6.887955	31.60348
694	7.14394	3.2327391	42.3726	42.1355	6.888619	31.60794
695	7.13988	3.2326144	42.6225	42.3840	6.889171	31.61019
696	7.13805	3.2327955	42.8845	42.6445	6.889308	31.61371
697	7.13607	3.2326770	43.1345	42.8931	6.889607	31.61412
698	7.13404	3.2328020	43.3904	43.1475	6.889796	31.61722
699	7.13253	3.2330456	43.6524	43.4080	6.889864	31.62112
700	7.13075	3.2331394	43.8994	43.6536	6.890036	31.62365
701	7.12893	3.2332956	44.1523	43.9050	6.890184	31.62690
702	7.12638	3.2345821	44.4143	44.1655	6.889873	31.64306
703	7.12064	3.2356690	44.6673	44.4171	6.890038	31.65998
704	7.11522	3.2361376	44.9171	44.6655	6.890465	31.66992
705	7.11059	3.2363439	45.1731	44.9200	6.890926	31.67629
706	7.10647	3.2363190	45.4261	45.1715	6.891436	31.67968
707	7.10355	3.2363191	45.6821	45.4261	6.891791	31.68224
708	7.09913	3.2362006	45.9349	45.6775	6.892384	31.68491
709	7.09152	3.2359821	46.1971	45.9382	6.893406	31.68940
710	7.08288	3.2359198	46.4560	46.1956	6.894477	31.69655
711	7.07481	3.2357576	46.7060	46.4442	6.895528	31.70209
712	7.06763	3.2354579	46.9650	46.7017	6.896540	31.70532
713	7.06092	3.2357641	47.2119	46.9471	6.897201	31.71471
714	7.05249	3.2360766	47.4679	47.2017	6.898066	31.72574
715	7.04562	3.2364953	47.7391	47.4713	6.898691	31.73648
716	7.03995	3.2365079	48.0103	47.7410	6.899371	31.74172
717	7.03418	3.2367267	48.2602	47.9895	6.899962	31.74929
718	7.02617	3.2372516	48.5191	48.2469	6.900672	31.76226
719	7.01765	3.2376391	48.7691	48.4954	6.901511	31.77422
720	7.00938	3.2376830	49.0250	48.7499	6.902487	31.78220
721	7.00294	3.2375895	49.2903	49.0137	6.903311	31.78701
722	6.99665	3.2376396	49.5491	49.2710	6.904047	31.79323
723	6.99042	3.2378709	49.8083	49.5287	6.904688	31.80139
724	6.98320	3.2380273	50.0703	49.7892	6.905484	31.80964
725	6.97723	3.2380524	50.3264	50.0438	6.906194	31.81531
726	6.97084	3.2380275	50.5853	50.3013	6.906978	31.82082
727	6.96336	3.2376528	50.8383	50.5528	6.908064	31.82354
728	6.95449	3.2373781	51.0943	50.8074	6.909270	31.82863
729	6.94427	3.2378406	51.3441	51.0557	6.910277	31.84301
730	6.93368	3.2386781	51.6001	51.3102	6.911145	31.86182
731	6.92295	3.2387282	51.8502	51.5588	6.912416	31.87219
732	6.91263	3.2387972	52.1030	51.8102	6.913628	31.88239
733	6.90242	3.2387349	52.3559	52.0616	6.914892	31.89107
734	6.89236	3.2385851	52.6151	52.3194	6.916180	31.89864
735	6.88345	3.2386727	52.8741	52.5769	6.917214	31.90775
736	6.87822	3.2387978	53.1300	52.8314	6.917788	31.91385
737	6.87459	3.2387355	53.3921	53.0920	6.918260	31.91641
738	6.87024	3.2387668	53.6511	53.3494	6.918774	31.92068
739	6.86470	3.2387045	53.9132	53.6100	6.919477	31.92502
740	6.85786	3.2386734	54.1692	53.8645	6.920320	31.93091
741	6.85056	3.2385861	54.4251	54.1190	6.921247	31.93662
742	6.84254	3.2383988	54.6781	54.3706	6.922310	31.94192
743	6.83524	3.2381803	54.9370	54.6279	6.923302	31.94620
744	6.82914	3.2380555	55.1840	54.8735	6.924104	31.95040
745	6.82375	3.2379681	55.4399	55.1280	6.924801	31.95433
746	6.81827	3.2380870	55.7022	55.3887	6.925409	31.96061
747	6.81465	3.2381433	55.9641	55.6491	6.925823	31.96447
748	6.81212	3.2383684	56.2293	55.9127	6.926023	31.96917
749	6.80989	3.2385247	56.4884	56.1704	6.926219	31.97283
750	6.80700	3.2385560	56.7443	56.4249	6.926558	31.97575
751	6.80363	3.2385561	57.0004	56.6794	6.926969	31.97876
752	6.80007	3.2385562	57.2533	56.9309	6.927404	31.98197
753	6.79634	3.2386813	57.4970	57.1732	6.927796	31.98669
754	6.79221	3.2387064	57.7621	57.4367	6.928288	31.99069
755	6.78616	3.2387941	58.0122	57.6854	6.928979	31.99717
756	6.78068	3.2388317	58.2620	57.9338	6.929626	32.00258
757	6.77665	3.2387693	58.5272	58.1974	6.930149	32.00553
758	6.77376	3.2388632	58.7801	58.4489	6.930457	32.00914
759	6.77179	3.2390195	59.0422	58.7094	6.930622	32.01256
760	6.77035	3.2389883	59.3195	58.9852	6.930818	32.01344
761	6.76952	3.2388635	59.5938	59.2578	6.930985	32.01271
762	6.76875	3.2389635	59.8621	59.5246	6.931034	32.01440
763	6.76632	3.2388012	60.1333	59.7942	6.931413	32.01476
764	6.76404	3.2386826	60.3984	60.0578	6.931752	32.01546
765	6.76270	3.2383703	60.6726	60.3305	6.932074	32.01317
766	6.76100	3.2384703	60.9348	60.5911	6.932235	32.01573
767	6.75955	3.2384642	61.1967	60.8515	6.932418	32.01689
768	6.75774	3.2383393	61.4437	61.0971	6.932703	32.01709
769	6.75655	3.2382144	61.6997	61.3515	6.932914	32.01671
770	6.75382	3.2377834	61.9526	61.6031	6.933462	32.01443
771	6.74948	3.2376774	62.2056	61.8546	6.934044	32.01720
772	6.74690	3.2376275	62.4524	62.1000	6.934385	32.01894
773	6.74493	3.2375339	62.7086	62.3546	6.934674	32.01963
774	6.74302	3.2373215	62.9554	62.6000	6.935015	32.01897
775	6.73972	3.2369781	63.2205	62.8636	6.935589	32.01817
776	6.73580	3.2367970	63.4795	63.1210	6.936158	32.01972
777	6.73259	3.2366222	63.7507	63.3907	6.936636	32.02067
778	6.72821	3.2365162	64.0189	63.6574	6.937224	32.02348
779	6.72356	3.2365475	64.2872	63.9241	6.937776	32.02803
780	6.71830	3.2366101	64.5554	64.1907	6.938386	32.03351
781	6.71360	3.2367040	64.8143	64.4482	6.938912	32.03881
782	6.70973	3.2366416	65.0764	64.7087	6.939416	32.04162
783	6.70762	3.2367104	65.3294	64.9602	6.939643	32.04423
784	6.70612	3.2367355	65.5794	65.2088	6.939817	32.04579
785	6.70493	3.2367044	65.8384	65.4663	6.939981	32.04643
786	6.70473	3.2367045	66.0945	65.7209	6.940012	32.04650
787	6.70478	3.2367045	66.3504	65.9752	6.940011	32.04634
788	6.70390	3.2367983	66.6004	66.2238	6.940076	32.04807
789	6.70210	3.2369483	66.8532	66.4752	6.940225	32.05128
790	6.70024	3.2370734	67.1093	66.7298	6.940393	32.05427
791	6.69740	3.2372921	67.3531	66.9722	6.940632	32.05921
792	6.69431	3.2372985	67.6122	67.2298	6.941009	32.06205
793	6.69266	3.2372924	67.8742	67.4902	6.941217	32.06341
794	6.69183	3.2372924	68.1301	67.7447	6.941322	32.06406
795	6.69065	3.2373550	68.3802	67.9933	6.941440	32.06574
796	6.68915	3.2375363	68.6392	68.2508	6.941536	32.06900
797	6.68771	3.2377238	68.9043	68.5144	6.941623	32.07229
798	6.68626	3.2378176	69.1695	68.7780	6.941757	32.07454
799	6.68518	3.2379114	69.4286	69.0355	6.941847	32.07646
800	6.68348	3.2377553	69.7091	69.3144	6.942136	32.07621
801	6.68183	3.2375993	70.0016	69.6053	6.942419	32.07590
802	6.68054	3.2378243	70.2697	69.8718	6.942469	32.07946
803	6.67812	3.2379431	70.5228	70.1234	6.942708	32.08291
804	6.67667	3.2380931	70.7788	70.3779	6.942814	32.08579
805	6.67740	3.2382494	71.0376	70.6352	6.942654	32.08670
806	6.67760	3.2383432	71.2876	70.8838	6.942588	32.08742
807	6.67755	3.2383558	71.5437	71.1383	6.942594	32.08749
808	6.67869	3.2383371	71.8210	71.4140	6.942472	32.08609
809	6.67992	3.2383747	72.0801	71.6716	6.942309	32.08522
810	6.67961	3.2383248	72.3422	71.9321	6.942377	32.08484
811	6.67863	3.2382499	72.5951	72.1836	6.942538	32.08482
812	6.67765	3.2383437	72.8664	72.4533	6.942615	32.08664
813	6.67750	3.2386187	73.1224	72.7078	6.942503	32.08968
814	6.67709	3.2386875	73.3938	72.9776	6.942525	32.09069
815	6.67688	3.2388063	73.6588	73.2411	6.942496	32.09207
816	6.67755	3.2389938	73.9209	73.5017	6.942328	32.09337
817	6.67796	3.2393001	74.1800	73.7593	6.942132	32.09623
818	6.67863	3.2396751	74.4512	74.0288	6.941870	32.09959
819	6.67977	3.2400751	74.7103	74.2864	6.941541	32.10279
820	6.68126	3.2403877	74.9663	74.5410	6.941210	32.10470
821	6.68271	3.2406065	75.2315	74.8046	6.940933	32.10563
822	6.68369	3.2406503	75.4997	75.0712	6.940799	32.10507
823	6.68523	3.2408504	75.7558	75.3258	6.940518	32.10569
824	6.68621	3.2409129	76.0086	75.5771	6.940374	32.10534
825	6.68714	3.2411318	76.2557	75.8228	6.940159	32.10676
826	6.68843	3.2413568	76.5114	76.0770	6.939897	32.10790
827	6.68931	3.2415319	76.7706	76.3346	6.939710	32.10888
828	6.69080	3.2417508	77.0235	76.5860	6.939426	32.10976
829	6.69178	3.2418133	77.2796	76.8407	6.939283	32.10941
830	6.69168	3.2419072	77.5235	77.0832	6.939254	32.11042
831	6.69189	3.2419135	77.7885	77.3465	6.939231	32.11017
832	6.69250	3.2420261	78.0507	77.6072	6.939106	32.11070
833	6.69297	3.2421199	78.2975	77.8526	6.939009	32.11118
834	6.69261	3.2420887	78.5323	78.0860	6.939073	32.11106
835	6.69266	3.2422138	78.7881	78.3403	6.939010	32.11227
836	6.69354	3.2423264	79.0169	78.5677	6.938854	32.11257
837	6.69364	3.2424953	79.2455	78.7951	6.938762	32.11422
838	6.69317	3.2425579	79.4588	79.0071	6.938792	32.11524
839	6.69338	3.2425267	79.6935	79.2404	6.938787	32.11460
840	6.69488	3.2424955	79.9495	79.4949	6.938628	32.11273
841	6.69761	3.2427706	80.2177	79.7615	6.938167	32.11307
842	6.70009	3.2432083	80.4525	79.9949	6.937657	32.11544
843	6.70096	3.2436084	80.6627	80.2039	6.937357	32.11891
844	6.70143	3.2439149	80.8945	80.4343	6.937154	32.12173
845	6.70308	3.2441963	81.1351	80.6735	6.936821	32.12315
846	6.70545	3.2442901	81.3608	80.8979	6.936493	32.12185
847	6.70648	3.2445090	81.5894	81.1252	6.936265	32.12318
848	6.70648	3.2445403	81.8180	81.3524	6.936254	32.12342
849	6.70643	3.2445717	82.0251	81.5582	6.936249	32.12371
850	6.70664	3.2445405	82.2386	81.7705	6.936244	32.12307
851	6.70690	3.2445093	82.4609	81.9916	6.936233	32.12238
852	6.70741	3.2445406	82.6807	82.2100	6.936160	32.12214
853	6.70741	3.2444469	82.9031	82.4311	6.936212	32.12101
854	6.70726	3.2443844	83.1408	82.6674	6.936266	32.12036
855	6.70772	3.2443657	83.3969	82.9220	6.936225	32.11960
856	6.70829	3.2444471	83.6530	83.1766	6.936122	32.11984
857	6.70855	3.2445410	83.8693	83.3916	6.936049	32.12052
858	6.70849	3.2446348	84.1009	83.6218	6.936013	32.12149
859	6.70803	3.2447599	84.3265	83.8461	6.936012	32.12319
860	6.70741	3.2447600	84.5522	84.0704	6.936092	32.12367
861	6.70710	3.2448289	84.7899	84.3068	6.936100	32.12460
862	6.70715	3.2449102	85.0186	84.5341	6.936058	32.12534
863	6.70741	3.2449416	85.2317	84.7460	6.936016	32.12534
864	6.70726	3.2450354	85.4543	84.9673	6.935993	32.12641
865	6.70720	3.2451293	85.6830	85.1946	6.935958	32.12738
866	6.70720	3.2451606	85.9145	85.4247	6.935947	32.12761
867	6.70782	3.2453170	86.1493	85.6581	6.935800	32.12864
868	6.70839	3.2453796	86.3870	85.8944	6.935706	32.12868
869	6.70870	3.2454422	86.6247	86.1308	6.935642	32.12897
870	6.70834	3.2454423	86.8596	86.3643	6.935691	32.12919
871	6.70808	3.2454111	87.0972	86.6005	6.935743	32.12898
872	6.70824	3.2455050	87.3350	86.8368	6.935682	32.12975
873	6.70849	3.2456239	87.5697	87.0702	6.935597	32.13071
874	6.70829	3.2456865	87.7860	87.2852	6.935596	32.13148
875	6.70767	3.2456866	87.9965	87.4944	6.935675	32.13197
876	6.70679	3.2457804	88.2128	87.7095	6.935739	32.13372
877	6.70597	3.2457493	88.4323	87.9277	6.935859	32.13404
878	6.70488	3.2456555	88.6517	88.1458	6.936040	32.13393
879	6.70385	3.2455368	88.8774	88.3701	6.936228	32.13349
880	6.70370	3.2454431	89.1122	88.6035	6.936299	32.13249
881	6.70365	3.2452868	89.3589	88.8488	6.936387	32.13071
882	6.70277	3.2449742	89.5907	89.0792	6.936653	32.12799
883	6.70096	3.2449118	89.8284	89.3155	6.936907	32.12889
884	6.69957	3.2448181	90.0753	89.5609	6.937126	32.12905
885	6.69746	3.2444493	90.3282	89.8123	6.937570	32.12686
886	6.69421	3.2442618	90.5660	90.0487	6.938060	32.12774
887	6.69039	3.2443557	90.7946	90.2759	6.938479	32.13224
888	6.68688	3.2443246	91.0111	90.4912	6.938922	32.13508
889	6.68405	3.2441996	91.2428	90.7215	6.939331	32.13626
890	6.68250	3.2441559	91.4836	90.9609	6.939545	32.13712
891	6.68193	3.2441060	91.7091	91.1850	6.939643	32.13700
892	6.68111	3.2441061	91.9377	91.4123	6.939747	32.13766
893	6.68003	3.2440499	92.1876	91.6607	6.939911	32.13794
894	6.67874	3.2439249	92.4345	91.9061	6.940134	32.13766
895	6.67776	3.2439250	92.6753	92.1454	6.940257	32.13847
896	6.67724	3.2439564	92.9131	92.3818	6.940309	32.13918
897	6.67673	3.2440502	93.1448	92.6122	6.940330	32.14059
898	6.67616	3.2440753	93.3764	92.8424	6.940391	32.14129
899	6.67544	3.2441254	93.5989	93.0636	6.940458	32.14241
900	6.67466	3.2442943	93.8306	93.2939	6.940472	32.14488
901	6.67394	3.2443944	94.0684	93.5303	6.940515	32.14654
902	6.67343	3.2446696	94.2969	93.7574	6.940446	32.14994
903	6.67322	3.2449136	94.5256	93.9848	6.940354	32.15271
904	6.67317	3.2449449	94.7541	94.2119	6.940350	32.15299
905	6.67363	3.2451013	94.9889	94.4453	6.940221	32.15416
906	6.67420	3.2451326	95.2296	94.6846	6.940142	32.15386
907	6.67446	3.2451577	95.4704	94.9240	6.940104	32.15378
908	6.67456	3.2451640	95.7020	95.1542	6.940093	32.15364
909	6.67436	3.2452266	95.9460	95.3967	6.940092	32.15441
910	6.67430	3.2452267	96.1777	95.6270	6.940104	32.15435
911	6.67394	3.2452268	96.4122	95.8602	6.940152	32.15458
912	6.67394	3.2452769	96.6502	96.0967	6.940132	32.15502
913	6.67384	3.2453207	96.8847	96.3298	6.940128	32.15548
914	6.67363	3.2453521	97.1225	96.5662	6.940142	32.15591
915	6.67338	3.2453521	97.3542	96.7965	6.940178	32.15604
916	6.67317	3.2453835	97.5858	97.0267	6.940193	32.15647
917	6.67296	3.2454461	97.8204	97.2600	6.940192	32.15724
918	6.67271	3.2454774	98.0521	97.4903	6.940212	32.15772
919	6.67224	3.2454838	98.2869	97.7237	6.940270	32.15811
920	6.67209	3.2454776	98.5126	97.9480	6.940297	32.15808
921	6.67188	3.2454777	98.7380	98.1721	6.940326	32.15817
922	6.67188	3.2455090	98.9759	98.4085	6.940316	32.15840
923	6.67173	3.2455091	99.2166	98.6478	6.940339	32.15843
924	6.67173	3.2454779	99.4452	98.8751	6.940360	32.15798
925	6.67188	3.2455092	99.6799	99.1084	6.940331	32.15807
926	6.67142	3.2455718	99.9117	99.3388	6.940361	32.15909
927	6.67090	3.2455969	100.1403	99.5660	6.940415	32.15974
928	6.67008	3.2455657	100.3811	99.8053	6.940535	32.16005
929	6.66992	3.2455658	100.6371	100.0598	6.940559	32.16008
930	6.66997	3.2456284	100.8901	100.3114	6.940528	32.16060
931	6.66956	3.2457536	101.1157	100.5356	6.940520	32.16225
932	6.66869	3.2457224	101.3472	100.7657	6.940646	32.16263
933	6.66781	3.2457225	101.5943	101.0113	6.940757	32.16333
934	6.66781	3.2457226	101.8230	101.2386	6.940762	32.16322
935	6.66765	3.2457539	102.0608	101.4750	6.940770	32.16360
936	6.66735	3.2457852	102.2953	101.7082	6.940797	32.16413
937	6.66688	3.2457540	102.5333	101.9447	6.940874	32.16411
938	6.66637	3.2457229	102.7710	102.1810	6.940956	32.16414
939	6.66626	3.2456604	103.0025	102.4111	6.941005	32.16344
940	6.66606	3.2456917	103.2403	102.6474	6.941019	32.16386
941	6.66544	3.2456918	103.4721	102.8778	6.941099	32.16433
942	6.66477	3.2456919	103.7097	103.1141	6.941185	32.16485
943	6.66400	3.2456920	103.9476	103.3505	6.941283	32.16547
944	6.66327	3.2456608	104.1854	103.5869	6.941391	32.16569
945	6.66240	3.2457234	104.4261	103.8261	6.941471	32.16709
946	6.66219	3.2457860	104.6700	104.0686	6.941470	32.16785
947	6.66173	3.2458174	104.9077	104.3049	6.941515	32.16852
948	6.66065	3.2457987	105.1638	104.5594	6.941661	32.16921
949	6.66013	3.2458488	105.4108	104.8049	6.941703	32.17013
950	6.65977	3.2459740	105.6424	105.0351	6.941690	32.17173
951	6.65951	3.2461304	105.8801	105.2714	6.941648	32.17358
952	6.65931	3.2461930	106.1120	105.5019	6.941647	32.17435
953	6.65900	3.2462244	106.3436	105.7322	6.941674	32.17488
954	6.65910	3.2462870	106.5812	105.9683	6.941635	32.17535
955	6.65946	3.2463433	106.8251	106.2107	6.941569	32.17552
956	6.65998	3.2463434	107.0567	106.4409	6.941512	32.17493
957	6.66034	3.2463685	107.3097	106.6924	6.941461	32.17475
958	6.66054	3.2464061	107.5536	106.9349	6.941423	32.17485
959	6.66044	3.2464687	107.7945	107.1743	6.941409	32.17552
960	6.66039	3.2465000	108.0322	107.4106	6.941405	32.17580
961	6.66023	3.2465314	108.2668	107.6438	6.941413	32.17618
962	6.66059	3.2466065	108.5107	107.8862	6.941337	32.17655
963	6.66065	3.2466879	108.7452	108.1193	6.941296	32.17729
964	6.66065	3.2468130	108.9711	108.3438	6.941239	32.17855
965	6.66059	3.2469069	109.2058	108.5771	6.941203	32.17952
966	6.66065	3.2469383	109.4494	108.8193	6.941187	32.17970
967	6.66070	3.2469696	109.6874	109.0559	6.941170	32.17989
968	6.66111	3.2470010	109.9220	109.2890	6.941110	32.17973
969	6.66106	3.2470636	110.1660	109.5315	6.941090	32.18035
970	6.66126	3.2470887	110.4098	109.7739	6.941058	32.18032
971	6.66137	3.2471513	110.6413	110.0040	6.941019	32.18080
972	6.66152	3.2471514	110.8974	110.2585	6.941006	32.18054
973	6.66152	3.2472140	111.1506	110.5102	6.940980	32.18111
974	6.66162	3.2473704	111.3820	110.7403	6.940895	32.18262
975	6.66095	3.2474331	111.6077	110.9646	6.940950	32.18383
976	6.66044	3.2474331	111.8364	111.1919	6.941017	32.18421
977	6.66065	3.2474019	112.0832	111.4372	6.941013	32.18355
978	6.66106	3.2474333	112.3302	111.6827	6.940953	32.18339
979	6.66126	3.2474959	112.5679	111.9189	6.940902	32.18378
980	6.66126	3.2475273	112.8118	112.1614	6.940891	32.18401
981	6.66121	3.2475899	113.0588	112.4069	6.940872	32.18462
982	6.66070	3.2476838	113.3026	112.6492	6.940893	32.18603
983	6.66039	3.2477464	113.5371	112.8823	6.940904	32.18689
984	6.65977	3.2477903	113.7688	113.1127	6.940962	32.18785
985	6.65967	3.2478091	114.0067	113.3491	6.940970	32.18804
986	6.65946	3.2478718	114.2414	113.5823	6.940969	32.18881
987	6.65936	3.2478969	114.4729	113.8125	6.940974	32.18907
988	6.65920	3.2478719	114.7016	114.0398	6.941010	32.18883
989	6.65894	3.2478970	114.9395	114.2762	6.941033	32.18924
990	6.65900	3.2478971	115.1742	114.5095	6.941032	32.18908
991	6.65884	3.2478971	115.4119	114.7458	6.941056	32.18912
992	6.65838	3.2479285	115.6527	114.9852	6.941101	32.18978
993	6.65781	3.2479911	115.8936	115.2246	6.941144	32.19089
994	6.65735	3.2480788	116.1466	115.4760	6.941162	32.19217
995	6.65704	3.2481164	116.4027	115.7306	6.941186	32.19275
996	6.65647	3.2481165	116.6433	115.9697	6.941259	32.19317
997	6.65621	3.2481478	116.8810	116.2060	6.941280	32.19365
998	6.65590	3.2481479	117.1187	116.4422	6.941322	32.19382
999	6.65585	3.2481793	117.3505	116.6726	6.941318	32.19411
1000	6.65575	3.2481793	117.5883	116.9090	6.941335	32.19409
1001	6.65560	3.2482107	117.8230	117.1423	6.941343	32.19447
1002	6.65539	3.2482108	118.0578	117.3756	6.941373	32.19456
1003	6.65529	3.2482296	118.2986	117.6150	6.941382	32.19475
1004	6.65508	3.2482422	118.5424	117.8573	6.941405	32.19496
1005	6.65503	3.2482423	118.7772	118.0907	6.941417	32.19490
1006	6.65508	3.2482736	119.0119	118.3240	6.941400	32.19509
1007	6.65503	3.2482737	119.2467	118.5574	6.941411	32.19502
1008	6.65518	3.2482738	119.4874	118.7966	6.941397	32.19477
1009	6.65539	3.2483051	119.7313	119.0390	6.941362	32.19480
1010	6.65529	3.2483177	119.9629	119.2692	6.941373	32.19493
1011	6.65508	3.2483366	120.1976	119.5025	6.941394	32.19522
1012	6.65493	3.2483679	120.4354	119.7388	6.941402	32.19560
1013	6.65487	3.2483680	120.6669	119.9689	6.941413	32.19554
1014	6.65451	3.2483681	120.9017	120.2023	6.941462	32.19576
1015	6.65405	3.2483056	121.1700	120.4690	6.941554	32.19539
1016	6.65374	3.2482744	121.4411	120.7384	6.941613	32.19521
1017	6.65297	3.2483683	121.6851	120.9810	6.941665	32.19685
1018	6.65209	3.2484622	121.9229	121.2173	6.941729	32.19859
1019	6.65137	3.2485561	122.1607	121.4536	6.941775	32.20019
1020	6.65086	3.2486501	122.4106	121.7021	6.941795	32.20159
1021	6.65080	3.2486501	122.6605	121.9504	6.941807	32.20152
1022	6.65060	3.2487378	122.8922	122.1807	6.941793	32.20257
1023	6.65019	3.2488317	123.1268	122.4139	6.941801	32.20388
1024	6.64993	3.2488318	123.3708	122.6564	6.941838	32.20400
1025	6.64993	3.2488944	123.6177	122.9017	6.941812	32.20457
1026	6.65008	3.2488945	123.8493	123.1320	6.941798	32.20432
1027	6.65013	3.2489259	124.0872	123.3684	6.941781	32.20450
1028	6.64993	3.2489572	124.3186	123.5985	6.941796	32.20493
1029	6.64988	3.2489886	124.5535	123.8319	6.941791	32.20522
1030	6.64972	3.2490199	124.7944	124.0713	6.941800	32.20559
1031	6.64946	3.2490200	125.0443	124.3197	6.941836	32.20572
1032	6.64946	3.2490514	125.2880	124.5619	6.941826	32.20595
1033	6.64905	3.2490327	125.5350	124.8074	6.941890	32.20601
1034	6.64874	3.2490202	125.7788	125.0497	6.941939	32.20605
1035	6.64823	3.2490516	126.0316	125.3010	6.941991	32.20676
1036	6.64735	3.2490830	126.2786	125.5465	6.942086	32.20781
1037	6.64653	3.2490830	126.5073	125.7738	6.942190	32.20848
1038	6.64581	3.2491144	126.7573	126.0223	6.942267	32.20938
1039	6.64514	3.2491771	126.9951	126.2586	6.942322	32.21059
1040	6.64457	3.2491771	127.2421	126.5041	6.942396	32.21101
1041	6.64416	3.2491772	127.4949	126.7553	6.942451	32.21128
1042	6.64406	3.2492399	127.7388	126.9978	6.942437	32.21195
1043	6.64364	3.2492087	127.9644	127.2220	6.942507	32.21188
1044	6.64349	3.2492087	128.2021	127.4582	6.942531	32.21192
1045	6.64359	3.2492401	128.4399	127.6946	6.942508	32.21205
1046	6.64349	3.2492402	128.6836	127.9368	6.942526	32.21204
1047	6.64328	3.2492715	128.9276	128.1793	6.942540	32.21246
1048	6.64303	3.2492716	129.1745	128.4247	6.942577	32.21259
1049	6.64256	3.2492717	129.4184	128.6670	6.942638	32.21291
1050	6.64200	3.2492718	129.6653	128.9125	6.942711	32.21332
1051	6.64148	3.2493031	129.9091	129.1548	6.942763	32.21404
1052	6.64060	3.2492719	130.1561	129.4003	6.942890	32.21440
1053	6.63999	3.2493033	130.3938	129.6365	6.942954	32.21522
1054	6.63937	3.2493034	130.6376	129.8789	6.943034	32.21568
1055	6.63901	3.2493660	130.8631	130.1030	6.943051	32.21660
1056	6.63860	3.2493661	131.1132	130.3515	6.943106	32.21687
1057	6.63818	3.2494287	131.3753	130.6120	6.943130	32.21783
1058	6.63777	3.2494601	131.6496	130.8847	6.943170	32.21843
1059	6.63741	3.2495791	131.9300	131.1633	6.943161	32.21994
1060	6.63695	3.2496417	132.1708	131.4026	6.943191	32.22095
1061	6.63628	3.2497357	132.4147	131.6450	6.943230	32.22250
1062	6.63571	3.2497983	132.6583	131.8871	6.943273	32.22361
1063	6.63499	3.2498297	132.9176	132.1448	6.943350	32.22451
1064	6.63463	3.2498861	133.1553	132.3811	6.943370	32.22535
1065	6.63422	3.2499237	133.3870	132.6114	6.943406	32.22605
1066	6.63381	3.2499863	133.6340	132.8568	6.943430	32.22700
1067	6.63329	3.2500177	133.8779	133.0992	6.943482	32.22772
1068	6.63283	3.2500803	134.1156	133.3355	6.943512	32.22873
1069	6.63242	3.2501430	134.3622	133.5806	6.943536	32.22969
1070	6.63226	3.2501431	134.6062	133.8231	6.943560	32.22972
1071	6.63180	3.2501431	134.8562	134.0715	6.943621	32.23004
1072	6.63144	3.2501745	135.1092	134.3230	6.943654	32.23061
1073	6.63108	3.2501746	135.3592	134.5715	6.943703	32.23083
1074	6.63077	3.2502060	135.6153	134.8260	6.943730	32.23134
1075	6.63030	3.2502686	135.8710	135.0801	6.943761	32.23235
1076	6.63015	3.2503313	136.1151	135.3227	6.943753	32.23306
1077	6.62989	3.2503626	136.3650	135.5711	6.943774	32.23353
1078	6.62964	3.2503877	136.6118	135.8164	6.943798	32.23394
1079	6.62922	3.2504191	136.8619	136.0649	6.943838	32.23455
1080	6.62902	3.2504505	137.1179	136.3194	6.943852	32.23497
1081	6.62912	3.2504818	137.3768	136.5766	6.943830	32.23509
1082	6.62897	3.2504819	137.6329	136.8312	6.943854	32.23512
1083	6.62866	3.2505446	137.8890	137.0857	6.943866	32.23598
1084	6.62835	3.2506072	138.1391	137.3343	6.943877	32.23684
1085	6.62804	3.2507012	138.3920	137.5856	6.943873	32.23804
1086	6.62758	3.2507325	138.6510	137.8430	6.943919	32.23870
1087	6.62716	3.2507827	138.9101	138.1005	6.943949	32.23952
1088	6.62680	3.2508266	139.1783	138.3671	6.943977	32.24021
1089	6.62639	3.2508579	139.4190	138.6063	6.944016	32.24083
1090	6.62593	3.2509206	139.6597	138.8455	6.944046	32.24184
1091	6.62567	3.2509207	139.8915	139.0759	6.944082	32.24198
1092	6.62541	3.2509207	140.1324	139.3152	6.944118	32.24211
1093	6.62510	3.2509521	140.3641	139.5456	6.944145	32.24263
1094	6.62469	3.2509522	140.6049	139.7849	6.944200	32.24291
1095	6.62485	3.2509836	140.8518	140.0302	6.944171	32.24299
1096	6.62454	3.2509836	141.0897	140.2667	6.944213	32.24317
1097	6.62438	3.2510463	141.3424	140.5178	6.944206	32.24388
1098	6.62397	3.2510151	141.6109	140.7846	6.944277	32.24380
1099	6.62387	3.2510152	141.9034	141.0753	6.944296	32.24376
1100	6.62387	3.2510778	142.1686	141.3389	6.944270	32.24433
1101	6.62366	3.2511029	142.4338	141.6025	6.944288	32.24467
1102	6.62330	3.2511406	142.6655	141.8327	6.944318	32.24531
1103	6.62299	3.2511281	142.9276	142.0932	6.944367	32.24534
1104	6.62289	3.2511407	143.1928	142.3568	6.944379	32.24545
1105	6.62294	3.2511596	143.4397	142.6021	6.944369	32.24550
1106	6.62263	3.2511722	143.6894	142.8503	6.944405	32.24581
1107	6.62268	3.2511723	143.9423	143.1017	6.944404	32.24564
1108	6.62253	3.2512224	144.1863	143.3442	6.944403	32.24622
1109	6.62227	3.2512037	144.4546	143.6108	6.944449	32.24613
1110	6.62217	3.2512789	144.7046	143.8592	6.944430	32.24694
1111	6.62201	3.2512602	144.9607	144.1137	6.944463	32.24676
1112	6.62176	3.2512478	145.2045	144.3560	6.944506	32.24675
1113	6.62135	3.2512916	145.4544	144.6044	6.944539	32.24750
1114	6.62124	3.2513105	145.7012	144.8496	6.944547	32.24769
1115	6.62104	3.2513231	145.9543	145.1011	6.944571	32.24790
1116	6.62078	3.2513545	146.2070	145.3523	6.944592	32.24837
1117	6.62047	3.2513984	146.4722	145.6159	6.944613	32.24902
1118	6.62032	3.2513859	146.7284	145.8705	6.944644	32.24890
1119	6.62011	3.2513985	146.9875	146.1280	6.944668	32.24911
1120	6.61975	3.2514174	147.2466	146.3854	6.944707	32.24954
1121	6.61965	3.2514550	147.5025	146.6398	6.944707	32.24993
1122	6.61970	3.2514801	147.7525	146.8882	6.944693	32.25004
1123	6.61954	3.2515177	147.9995	147.1337	6.944698	32.25048
1124	6.61939	3.2515116	148.2493	147.3819	6.944725	32.25044
1125	6.61923	3.2515429	148.4931	147.6242	6.944734	32.25081
1126	6.61908	3.2515430	148.7492	147.8788	6.944758	32.25084
1127	6.61913	3.2515744	148.9994	148.1274	6.944741	32.25102
1128	6.61867	3.2515181	149.2643	148.3906	6.944831	32.25071
1129	6.61857	3.2515120	149.5143	148.6391	6.944852	32.25062
1130	6.61821	3.2515183	149.7734	148.8965	6.944898	32.25091
1131	6.61769	3.2515121	150.0203	149.1420	6.944968	32.25121
1132	6.61707	3.2515122	150.2673	149.3874	6.945048	32.25168
1133	6.61651	3.2515749	150.5140	149.6325	6.945091	32.25278
1134	6.61604	3.2515499	150.7762	149.8931	6.945165	32.25282
1135	6.61558	3.2516063	151.0412	150.1565	6.945198	32.25375
1136	6.61532	3.2516064	151.2850	150.3988	6.945234	32.25388
1137	6.61522	3.2516378	151.5353	150.6476	6.945237	32.25420
1138	6.61491	3.2516379	151.7942	150.9048	6.945279	32.25437
1139	6.61486	3.2516380	152.0715	151.1804	6.945291	32.25429
1140	6.61470	3.2516380	152.3397	151.4469	6.945316	32.25431
1141	6.61434	3.2516694	152.5775	151.6832	6.945349	32.25488
1142	6.61378	3.2516382	152.8337	151.9378	6.945438	32.25495
1143	6.61331	3.2516383	153.0775	152.1801	6.945499	32.25527
1144	6.61311	3.2516384	153.3272	152.4283	6.945529	32.25535
1145	6.61290	3.2516697	153.5773	152.6768	6.945544	32.25577
1146	6.61270	3.2516636	153.8213	152.9192	6.945577	32.25578
1147	6.61244	3.2516386	154.0803	153.1766	6.945626	32.25563
1148	6.61223	3.2515761	154.3301	153.4249	6.945688	32.25502
1149	6.61203	3.2516075	154.5889	153.6821	6.945702	32.25543
1150	6.61167	3.2516389	154.8422	153.9339	6.945736	32.25600
1151	6.61146	3.2516076	155.1012	154.1912	6.945782	32.25573
1152	6.61120	3.2516390	155.3545	154.4429	6.945802	32.25619
1153	6.61110	3.2517017	155.6041	154.6909	6.945789	32.25686
1154	6.61110	3.2517831	155.8725	154.9576	6.945754	32.25763
1155	6.61120	3.2517957	156.1254	155.2090	6.945741	32.25755
1156	6.61100	3.2517645	156.3693	155.4514	6.945787	32.25729
1157	6.61084	3.2517834	156.6284	155.7088	6.945801	32.25752
1158	6.61064	3.2517959	156.8660	155.9449	6.945825	32.25774
1159	6.61048	3.2518148	157.1250	156.2024	6.945840	32.25797
1160	6.61048	3.2518274	157.3690	156.4448	6.945839	32.25799
1161	6.61023	3.2518462	157.6281	156.7023	6.945866	32.25832
1162	6.61023	3.2518588	157.8781	156.9507	6.945865	32.25834
1163	6.61033	3.2518589	158.1340	157.2051	6.945858	32.25812
1164	6.61018	3.2519591	158.3959	157.4653	6.945833	32.25925
1165	6.61018	3.2521657	158.6459	157.7137	6.945735	32.26140
1166	6.60981	3.2522597	158.8990	157.9652	6.945737	32.26266
1167	6.60976	3.2522598	159.1612	158.2259	6.945749	32.26258
1168	6.60961	3.2523224	159.4111	158.4742	6.945742	32.26330
1169	6.60961	3.2523789	159.6671	158.7286	6.945719	32.26380
1170	6.60945	3.2524165	159.9139	158.9738	6.945725	32.26424
1171	6.60945	3.2524353	160.1578	159.2162	6.945720	32.26433
1172	6.60940	3.2524792	160.4045	159.4614	6.945710	32.26475
1173	6.60920	3.2524480	160.6484	159.7037	6.945756	32.26448
1174	6.60920	3.2525107	160.8925	159.9462	6.945730	32.26506
1175	6.60925	3.2525233	161.1485	160.2007	6.945723	32.26503
1176	6.60925	3.2525734	161.4074	160.4579	6.945703	32.26545
1177	6.60935	3.2526048	161.6605	160.7095	6.945681	32.26558
1178	6.60945	3.2526111	161.9225	160.9698	6.945671	32.26543
1179	6.60951	3.2526362	162.1938	161.2395	6.945658	32.26553
1180	6.60956	3.2527302	162.4772	161.5210	6.945611	32.26638
1181	6.60951	3.2528743	162.7576	161.7997	6.945551	32.26788
1182	6.60956	3.2529369	163.0198	162.0602	6.945520	32.26840
1183	6.60951	3.2529808	163.2665	162.3054	6.945509	32.26882
1184	6.60945	3.2530122	163.5134	162.5508	6.945505	32.26909
1185	6.60961	3.2529997	163.7724	162.8081	6.945498	32.26869
1186	6.60971	3.2530749	164.0348	163.0688	6.945454	32.26929
1187	6.60971	3.2530875	164.2878	163.3202	6.945453	32.26931
1188	6.60961	3.2531627	164.5406	163.5715	6.945434	32.27012
1189	6.60997	3.2532567	164.7997	163.8289	6.945349	32.27069
1190	6.61043	3.2535009	165.0801	164.1076	6.945178	32.27281
1191	6.61120	3.2536324	165.3360	164.3619	6.945024	32.27340
1192	6.61172	3.2536763	165.6045	164.6287	6.944946	32.27327
1193	6.61198	3.2537265	165.8632	164.8858	6.944896	32.27346
1194	6.61223	3.2537641	166.1163	165.1372	6.944851	32.27351
1195	6.61249	3.2538518	166.3725	165.3918	6.944782	32.27411
1196	6.61285	3.2539458	166.6284	165.6462	6.944697	32.27469
1197	6.61347	3.2541274	166.8812	165.8973	6.944538	32.27598
1198	6.61440	3.2542526	167.1343	166.1489	6.944369	32.27637
1199	6.61501	3.2543591	167.3873	166.4003	6.944247	32.27684
1200	6.61594	3.2545032	167.6372	166.6486	6.944069	32.27743
1201	6.61676	3.2546598	167.8931	166.9029	6.943897	32.27826
1202	6.61779	3.2548038	168.1492	167.1574	6.943706	32.27875
1203	6.61867	3.2549103	168.4052	167.4118	6.943553	32.27897
1204	6.61934	3.2549417	168.6766	167.6814	6.943463	32.27856
1205	6.61975	3.2550357	168.9233	167.9266	6.943372	32.27909
1206	6.62026	3.2551234	169.1732	168.1749	6.943271	32.27945
1207	6.62068	3.2551861	169.4233	168.4234	6.943196	32.27963
1208	6.62114	3.2552425	169.6822	168.6807	6.943117	32.27970
1209	6.62150	3.2553740	169.9413	168.9382	6.943014	32.28068
1210	6.62217	3.2554492	170.1913	169.1865	6.942901	32.28076
1211	6.62248	3.2555307	170.4472	169.4409	6.942829	32.28124
1212	6.62304	3.2556247	170.7032	169.6953	6.942719	32.28162
1213	6.62382	3.2558063	170.9593	169.9497	6.942541	32.28277
1214	6.62469	3.2560318	171.2184	170.2072	6.942329	32.28430
1215	6.62567	3.2561508	171.4774	170.4646	6.942157	32.28457
1216	6.62644	3.2562448	171.7455	170.7310	6.942023	32.28475
1217	6.62721	3.2562825	172.0109	170.9947	6.941917	32.28431
1218	6.62773	3.2563076	172.2729	171.2551	6.941848	32.28397
1219	6.62804	3.2563390	172.5564	171.5367	6.941801	32.28389
1220	6.62830	3.2563704	172.8519	171.8304	6.941761	32.28386
1221	6.62850	3.2564268	173.1261	172.1029	6.941714	32.28415
1222	6.62871	3.2564019	173.3793	172.3544	6.941706	32.28357
1223	6.62845	3.2564270	173.6291	172.6027	6.941730	32.28397
1224	6.62840	3.2564960	173.8942	172.8661	6.941708	32.28465
1225	6.62866	3.2564960	174.1472	173.1175	6.941682	32.28429
1226	6.62850	3.2565149	174.3972	173.3659	6.941697	32.28452
1227	6.62855	3.2565338	174.6715	173.6385	6.941687	32.28455
1228	6.62876	3.2565464	174.9396	173.9048	6.941662	32.28437
1229	6.62886	3.2565590	175.1868	174.1505	6.941648	32.28430
1230	6.62907	3.2566342	175.4608	174.4227	6.941592	32.28480
1231	6.62933	3.2566531	175.7169	174.6772	6.941557	32.28464
1232	6.62938	3.2567220	175.9819	174.9405	6.941522	32.28523
1233	6.62964	3.2567471	176.2443	175.2013	6.941484	32.28514
1234	6.62974	3.2567535	176.5064	175.4617	6.941474	32.28499
1235	6.62994	3.2568099	176.7652	175.7189	6.941427	32.28529
1236	6.63005	3.2568413	177.0275	175.9795	6.941404	32.28542
1237	6.63020	3.2568727	177.2801	176.2305	6.941376	32.28550
1238	6.63020	3.2568728	177.5303	176.4791	6.941381	32.28538
1239	6.63030	3.2569355	177.7616	176.7090	6.941342	32.28586
1240	6.63051	3.2569355	178.0087	176.9545	6.941323	32.28555
1241	6.63072	3.2570233	178.2496	177.1938	6.941259	32.28621
1242	6.63092	3.2570922	178.4963	177.4390	6.941205	32.28666
1243	6.63113	3.2570923	178.7433	177.6844	6.941186	32.28635
1244	6.63128	3.2571425	178.9901	177.9296	6.941148	32.28664
1245	6.63149	3.2571864	179.2399	178.1779	6.941106	32.28681
1246	6.63164	3.2572741	179.4931	178.4295	6.941049	32.28751
1247	6.63190	3.2573180	179.7460	178.6807	6.941002	32.28763
1248	6.63226	3.2573682	179.9987	178.9318	6.940939	32.28772
1249	6.63236	3.2573746	180.2548	179.1863	6.940929	32.28757
1250	6.63262	3.2574310	180.5169	179.4468	6.940875	32.28783
1251	6.63283	3.2574624	180.7731	179.7013	6.940840	32.28786
1252	6.63288	3.2575564	181.0475	179.9739	6.940793	32.28871
1253	6.63319	3.2577444	181.3612	180.2857	6.940669	32.29034
1254	6.63401	3.2579323	181.6719	180.5944	6.940483	32.29148
1255	6.63463	3.2581140	181.9556	180.8763	6.940324	32.29276
1256	6.63530	3.2582769	182.1841	181.1033	6.940168	32.29381
1257	6.63581	3.2583083	182.4066	181.3244	6.940095	32.29357
1258	6.63607	3.2583522	182.6503	181.5665	6.940047	32.29369
1259	6.63648	3.2583648	182.8848	181.7996	6.939996	32.29333
1260	6.63679	3.2583962	183.1594	182.0724	6.939949	32.29326
1261	6.63700	3.2584715	183.4669	182.3780	6.939893	32.29375
1262	6.63715	3.2584904	183.7472	182.6565	6.939871	32.29368
1263	6.63736	3.2585906	184.0034	182.9111	6.939802	32.29446
1264	6.63741	3.2586158	184.2503	183.1564	6.939789	32.29458
1265	6.63757	3.2586472	184.4971	183.4016	6.939760	32.29466
1266	6.63772	3.2586472	184.7409	183.6438	6.939746	32.29440
1267	6.63777	3.2586786	185.0001	183.9013	6.939730	32.29457
1268	6.63777	3.2587413	185.2623	184.1619	6.939705	32.29514
1269	6.63793	3.2587101	185.5181	184.4161	6.939707	32.29453
1270	6.63793	3.2587666	185.7681	184.6644	6.939684	32.29503
1271	6.63787	3.2587729	186.0240	184.9187	6.939693	32.29503
1272	6.63793	3.2587730	186.2710	185.1641	6.939692	32.29487
1273	6.63793	3.2588294	186.5147	185.4063	6.939669	32.29537
1274	6.63798	3.2588232	186.7678	185.6578	6.939671	32.29514
1275	6.63787	3.2588609	187.0330	185.9213	6.939670	32.29552
1276	6.63793	3.2588672	187.2979	186.1845	6.939667	32.29542
1277	6.63798	3.2588611	187.5478	186.4328	6.939669	32.29518
1278	6.63787	3.2588987	187.7977	186.6811	6.939668	32.29558
1279	6.63798	3.2589301	188.0444	186.9263	6.939645	32.29571
1280	6.63787	3.2589490	188.2977	187.1779	6.939654	32.29589
1281	6.63777	3.2589303	188.5384	187.4171	6.939680	32.29567
1282	6.63793	3.2589491	188.7915	187.6685	6.939658	32.29561
1283	6.63782	3.2589617	189.0441	187.9195	6.939669	32.29573
1284	6.63787	3.2589743	189.3001	188.1739	6.939662	32.29570
1285	6.63793	3.2589932	189.5623	188.4344	6.939652	32.29574
1286	6.63782	3.2590246	189.8151	188.6856	6.939655	32.29606
1287	6.63777	3.2590059	190.0682	188.9371	6.939675	32.29578
1288	6.63782	3.2590561	190.3213	189.1885	6.939650	32.29617
1289	6.63762	3.2590875	190.5711	189.4367	6.939664	32.29659
1290	6.63757	3.2591252	190.8239	189.6880	6.939657	32.29693
1291	6.63757	3.2591190	191.0678	189.9302	6.939665	32.29675
1292	6.63731	3.2591504	191.3207	190.1815	6.939686	32.29722
1293	6.63736	3.2591191	191.5768	190.4360	6.939701	32.29670
1294	6.63715	3.2591505	191.8299	190.6874	6.939716	32.29712
1295	6.63715	3.2591882	192.0888	190.9447	6.939702	32.29742
1296	6.63721	3.2591820	192.3478	191.2021	6.939705	32.29718
1297	6.63710	3.2592134	192.6068	191.4594	6.939707	32.29750
1298	6.63715	3.2592448	192.8506	191.7016	6.939691	32.29768
1299	6.63705	3.2592762	193.1096	191.9589	6.939693	32.29800
1300	6.63700	3.2592763	193.3687	192.2164	6.939705	32.29793
1301	6.63710	3.2592764	193.6399	192.4858	6.939698	32.29770
1302	6.63705	3.2593015	193.9143	192.7585	6.939697	32.29790
1303	6.63705	3.2593392	194.2067	193.0490	6.939685	32.29818
1304	6.63695	3.2593706	194.4870	193.3275	6.939688	32.29849
1305	6.63669	3.2594020	194.7461	193.5850	6.939709	32.29895
1306	6.63638	3.2594334	194.9960	193.8332	6.939736	32.29947
1307	6.63618	3.2594523	195.2551	194.0906	6.939757	32.29975
1308	6.63597	3.2594649	195.4988	194.3328	6.939781	32.29997
1309	6.63592	3.2595276	195.7578	194.5901	6.939761	32.30058
1310	6.63561	3.2594963	196.0080	194.8387	6.939819	32.30041
1311	6.63515	3.2595403	196.2760	195.1050	6.939859	32.30121
1312	6.63499	3.2595529	196.5379	195.3652	6.939877	32.30137
1313	6.63473	3.2596156	196.8000	195.6256	6.939882	32.30218
1314	6.63442	3.2596032	197.0744	195.8982	6.939932	32.30220
1315	6.63432	3.2596158	197.3365	196.1587	6.939943	32.30231
1316	6.63412	3.2596472	197.5896	196.4101	6.939958	32.30273
1317	6.63401	3.2596473	197.8332	196.6522	6.939976	32.30272
1318	6.63401	3.2596787	198.0862	196.9036	6.939965	32.30294
1319	6.63396	3.2597226	198.3360	197.1517	6.939955	32.30336
1320	6.63391	3.2597540	198.6012	197.4152	6.939951	32.30362
1321	6.63401	3.2597729	198.8692	197.6814	6.939935	32.30361
1322	6.63406	3.2597792	199.1312	197.9418	6.939932	32.30351
1323	6.63401	3.2598044	199.3995	198.2084	6.939931	32.30371
1324	6.63401	3.2598044	199.6586	198.4658	6.939936	32.30358
1325	6.63401	3.2598358	199.9267	198.7321	6.939927	32.30380
1326	6.63375	3.2598672	200.1948	198.9985	6.939948	32.30426
1327	6.63365	3.2598673	200.4448	199.2469	6.939965	32.30424
1328	6.63375	3.2599300	200.7040	199.5044	6.939927	32.30471
1329	6.63370	3.2599301	200.9596	199.7583	6.939939	32.30464
1330	6.63370	3.2599615	201.2005	199.9977	6.939929	32.30488
1331	6.63391	3.2599929	201.4535	200.2491	6.939894	32.30491
1332	6.63401	3.2600243	201.7002	200.4942	6.939871	32.30504
1333	6.63396	3.2600495	201.9501	200.7425	6.939870	32.30525
1334	6.63401	3.2600558	202.2061	200.9968	6.939866	32.30515
1335	6.63396	3.2600747	202.4681	201.2572	6.939868	32.30528
1336	6.63396	3.2601186	202.7394	201.5267	6.939852	32.30563
1337	6.63381	3.2601375	203.0013	201.7869	6.939867	32.30586
1338	6.63370	3.2601501	203.2666	202.0504	6.939879	32.30598
1339	6.63360	3.2601690	203.5196	202.3019	6.939887	32.30616
1340	6.63365	3.2602129	203.7816	202.5621	6.939865	32.30647
1341	6.63355	3.2602443	204.0285	202.8074	6.939867	32.30680
1342	6.63350	3.2602569	204.2965	203.0737	6.939873	32.30686
1343	6.63345	3.2602445	204.6013	203.3766	6.939891	32.30663
1344	6.63319	3.2602822	204.8785	203.6519	6.939910	32.30715
1345	6.63314	3.2603386	205.1527	203.9243	6.939894	32.30769
1346	6.63293	3.2603450	205.3996	204.1696	6.939921	32.30784
1347	6.63283	3.2603701	205.6497	204.4181	6.939926	32.30810
1348	6.63288	3.2603764	205.8933	204.6601	6.939922	32.30800
1349	6.63293	3.2603703	206.1371	204.9024	6.939924	32.30777
1350	6.63298	3.2604017	206.3931	205.1568	6.939907	32.30795
1351	6.63293	3.2604017	206.6368	205.3988	6.939919	32.30788
1352	6.63278	3.2604331	206.8930	205.6534	6.939927	32.30825
1353	6.63272	3.2604332	207.1368	205.8955	6.939939	32.30819
1354	6.63257	3.2604959	207.3895	206.1467	6.939932	32.30890
1355	6.63262	3.2604960	207.6029	206.3587	6.939930	32.30876
1356	6.63242	3.2605587	207.7705	206.5252	6.939927	32.30956
1357	6.63252	3.2606527	207.8439	206.5981	6.939870	32.31046
1358	6.63242	3.2607028	207.8197	206.5740	6.939857	32.31112
1359	6.63314	3.2607153	207.7529	206.5077	6.939762	32.31061
1360	6.63365	3.2607153	207.7133	206.4683	6.939699	32.31014
1361	6.63412	3.2607466	207.7163	206.4713	6.939628	32.31005
1362	6.63422	3.2607466	207.7412	206.4960	6.939616	32.30994
1363	6.63417	3.2607779	207.7501	206.5049	6.939607	32.31033
1364	6.63427	3.2608469	207.7473	206.5022	6.939560	32.31099
1365	6.63432	3.2608656	207.7321	206.4870	6.939544	32.31115
1366	6.63427	3.2608970	207.7233	206.4782	6.939535	32.31155
1367	6.63422	3.2608406	207.7386	206.4935	6.939569	32.31097
1368	6.63417	3.2608343	207.7571	206.5118	6.939579	32.31094
1369	6.63401	3.2608782	207.7693	206.5240	6.939576	32.31157
1370	6.63412	3.2608970	207.7727	206.5273	6.939554	32.31167
1371	6.63432	3.2609283	207.7790	206.5336	6.939514	32.31182
1372	6.63453	3.2609972	207.7790	206.5336	6.939455	32.31238
1373	6.63463	3.2610223	207.7731	206.5277	6.939430	32.31256
1374	6.63478	3.2610536	207.7549	206.5097	6.939395	32.31277
1375	6.63484	3.2609596	207.7091	206.4642	6.939435	32.31171
1376	6.63520	3.2609909	207.5847	206.3406	6.939373	32.31177
1377	6.63654	3.2610535	207.4110	206.1680	6.939177	32.31128
1378	6.63731	3.2610534	207.2348	205.9929	6.939080	32.31064
1379	6.63767	3.2611160	207.0579	205.8172	6.939002	32.31107
1380	6.63777	3.2610846	206.8970	205.6573	6.939002	32.31070
1381	6.63787	3.2610846	206.7419	205.5032	6.938986	32.31068
1382	6.63798	3.2610845	206.5834	205.3458	6.938970	32.31065
1383	6.63798	3.2610845	206.4220	205.1854	6.938967	32.31073
1384	6.63803	3.2610844	206.2669	205.0314	6.938957	32.31075
1385	6.63793	3.2611157	206.0936	204.8592	6.938951	32.31127
1386	6.63798	3.2611156	205.9200	204.6867	6.938941	32.31131
1387	6.63818	3.2611156	205.7376	204.5054	6.938912	32.31120
1388	6.63844	3.2611155	205.5457	204.3148	6.938877	32.31104
1389	6.63839	3.2611217	205.3479	204.1183	6.938876	32.31125
1390	6.63844	3.2611718	205.1468	203.9185	6.938840	32.31185
1391	6.63844	3.2611780	204.9431	203.7161	6.938833	32.31201
1392	6.63839	3.2611716	204.7239	203.4984	6.938838	32.31210
1393	6.63854	3.2611778	204.4864	203.2623	6.938811	32.31213
1394	6.63865	3.2612028	204.2581	203.0356	6.938781	32.31242
1395	6.63849	3.2610524	204.0331	202.8120	6.938870	32.31101
1396	6.63834	3.2610273	203.8108	202.5911	6.938896	32.31099
1397	6.63818	3.2609896	203.5885	202.3702	6.938929	32.31082
1398	6.63808	3.2609958	203.3631	202.1463	6.938933	32.31110
1399	6.63824	3.2609581	203.1380	201.9227	6.938929	32.31064
1400	6.63824	3.2609079	202.9006	201.6868	6.938949	32.31020
1401	6.63824	3.2608327	202.6753	201.4630	6.938981	32.30948
1402	6.63813	3.2608452	202.4499	201.2391	6.938982	32.30982
1403	6.63803	3.2608075	202.2128	201.0034	6.939009	32.30962
1404	6.63798	3.2607761	201.9812	200.7734	6.939025	32.30943
1405	6.63818	3.2607886	201.7501	200.5438	6.938990	32.30948
1406	6.63803	3.2607133	201.5249	200.3200	6.939041	32.30891
1407	6.63808	3.2606694	201.2934	200.0901	6.939051	32.30848
1408	6.63808	3.2606505	201.0652	199.8633	6.939056	32.30838
1409	6.63829	3.2606692	200.8367	199.6362	6.939017	32.30850
1410	6.63834	3.2606191	200.6146	199.4156	6.939031	32.30801
1411	6.63849	3.2606190	200.3865	199.1890	6.939007	32.30797
1412	6.63844	3.2605813	200.1702	198.9741	6.939028	32.30771
1413	6.63834	3.2605750	199.9265	198.7319	6.939038	32.30785
1414	6.63829	3.2605185	199.6829	198.4899	6.939067	32.30739
1415	6.63829	3.2604934	199.4518	198.2603	6.939075	32.30722
1416	6.63839	3.2604620	199.2175	198.0275	6.939073	32.30689
1417	6.63839	3.2604619	198.9832	197.7947	6.939068	32.30700
1418	6.63829	3.2604619	198.7423	197.5554	6.939075	32.30721
1419	6.63818	3.2604305	198.5082	197.3228	6.939098	32.30707
1420	6.63824	3.2603677	198.2798	197.0958	6.939118	32.30644
1421	6.63793	3.2603426	198.0423	196.8599	6.939163	32.30657
1422	6.63793	3.2603050	197.8171	196.6362	6.939177	32.30626
1423	6.63803	3.2603049	197.5858	196.4064	6.939160	32.30627
1424	6.63803	3.2602798	197.3572	196.1792	6.939167	32.30610
1425	6.63798	3.2603047	197.1383	195.9617	6.939156	32.30653
1426	6.63798	3.2602546	196.9038	195.7288	6.939176	32.30609
1427	6.63782	3.2602420	196.6695	195.4960	6.939196	32.30621
1428	6.63787	3.2601918	196.4352	195.2631	6.939210	32.30572
1429	6.63777	3.2601478	196.1944	195.0239	6.939239	32.30544
1430	6.63767	3.2601352	195.9601	194.7911	6.939253	32.30551
1431	6.63777	3.2601477	195.7197	194.5523	6.939229	32.30567
1432	6.63767	3.2600850	195.4821	194.3162	6.939268	32.30519
1433	6.63762	3.2600724	195.2445	194.0802	6.939275	32.30521
1434	6.63767	3.2600222	195.0193	193.8564	6.939289	32.30471
1435	6.63762	3.2600221	194.7941	193.6327	6.939290	32.30487
1436	6.63762	3.2600158	194.5657	193.4057	6.939289	32.30491
1437	6.63782	3.2599593	194.3404	193.1818	6.939287	32.30420
1438	6.63777	3.2599593	194.1092	192.9521	6.939288	32.30435
1439	6.63777	3.2599279	193.8688	192.7133	6.939299	32.30412
1440	6.63787	3.2599278	193.6131	192.4592	6.939281	32.30414
1441	6.63798	3.2598338	193.3755	192.2232	6.939310	32.30313
1442	6.63829	3.2598399	193.1410	191.9902	6.939265	32.30301
1443	6.63849	3.2598336	192.9129	191.7635	6.939238	32.30286
1444	6.63880	3.2598649	192.6844	191.5365	6.939181	32.30302
1445	6.63885	3.2598021	192.4408	191.2945	6.939200	32.30239
1446	6.63896	3.2597770	192.2125	191.0676	6.939196	32.30213
1447	6.63890	3.2597393	191.9812	190.8378	6.939216	32.30187
1448	6.63890	3.2597080	191.7472	190.6053	6.939226	32.30164
1449	6.63916	3.2596891	191.5185	190.3781	6.939200	32.30130
1450	6.63916	3.2596765	191.2841	190.1451	6.939201	32.30127
1451	6.63937	3.2596451	191.0497	189.9123	6.939187	32.30084
1452	6.63952	3.2596012	190.8242	189.6883	6.939185	32.30032
1453	6.63963	3.2596136	190.5963	189.4618	6.939161	32.30046
1454	6.63978	3.2595509	190.3677	189.2347	6.939169	32.29974
1455	6.63988	3.2595696	190.1424	189.0107	6.939143	32.29995
1456	6.64004	3.2595257	189.9203	188.7901	6.939141	32.29943
1457	6.63999	3.2595256	189.6920	188.5633	6.939142	32.29958
1458	6.63999	3.2595131	189.4664	188.3392	6.939144	32.29955
1459	6.64009	3.2594629	189.2382	188.1124	6.939152	32.29901
1460	6.64014	3.2594628	188.9947	187.8704	6.939140	32.29908
1461	6.64019	3.2594314	188.7543	187.6316	6.939144	32.29880
1462	6.64030	3.2594000	188.5228	187.4015	6.939143	32.29846
1463	6.64040	3.2593937	188.3007	187.1809	6.939129	32.29840
1464	6.64040	3.2593685	188.0662	186.9479	6.939136	32.29823
1465	6.64045	3.2593372	187.8349	186.7180	6.939141	32.29795
1466	6.64035	3.2592995	187.6035	186.4881	6.939167	32.29774
1467	6.64035	3.2592744	187.3749	186.2610	6.939174	32.29757
1468	6.64055	3.2592743	187.1347	186.0223	6.939144	32.29749
1469	6.64055	3.2592429	186.9063	185.7953	6.939155	32.29725
1470	6.64060	3.2592428	186.6808	185.5714	6.939144	32.29731
1471	6.64060	3.2592114	186.4556	185.3476	6.939155	32.29707
1472	6.64045	3.2592114	186.2302	185.1237	6.939169	32.29732
1473	6.64050	3.2591863	186.0051	184.9000	6.939170	32.29711
1474	6.64055	3.2591486	185.7770	184.6733	6.939178	32.29675
1475	6.64060	3.2591485	185.5545	184.4522	6.939167	32.29681
1476	6.64071	3.2591234	185.3262	184.2254	6.939162	32.29654
1477	6.64066	3.2591484	185.0918	183.9925	6.939151	32.29697
1478	6.64060	3.2591233	184.8574	183.7596	6.939165	32.29686
1479	6.64071	3.2590856	184.6196	183.5233	6.939166	32.29646
1480	6.64081	3.2590855	184.3854	183.2906	6.939149	32.29647
1481	6.64060	3.2590541	184.1479	183.0546	6.939184	32.29643
1482	6.64071	3.2590666	183.9229	182.8311	6.939161	32.29658
1483	6.64071	3.2590227	183.6880	182.5976	6.939177	32.29621
1484	6.64076	3.2590226	183.4568	182.3679	6.939166	32.29626
1485	6.64076	3.2590037	183.2285	182.1411	6.939171	32.29616
1486	6.64060	3.2589598	183.0033	181.9173	6.939206	32.29593
1487	6.64050	3.2589284	182.7504	181.6660	6.939229	32.29581
1488	6.64055	3.2589471	182.5071	181.4243	6.939208	32.29608
1489	6.64045	3.2588970	182.2634	181.1821	6.939241	32.29574
1490	6.64045	3.2588343	182.0350	180.9551	6.939267	32.29516
1491	6.64040	3.2588592	181.8097	180.7314	6.939256	32.29559
1492	6.64035	3.2588341	181.5814	180.5045	6.939270	32.29547
1493	6.64035	3.2588340	181.3438	180.2684	6.939265	32.29558
1494	6.64024	3.2587964	181.1187	180.0447	6.939291	32.29537
1495	6.64024	3.2587713	180.8659	179.7936	6.939298	32.29521
1496	6.64024	3.2587649	180.5951	179.5245	6.939295	32.29527
1497	6.64004	3.2587085	180.3208	179.2519	6.939342	32.29497
1498	6.63999	3.2586458	180.0775	179.0101	6.939375	32.29444
1499	6.63988	3.2586144	179.8517	178.7858	6.939398	32.29430
1500	6.63973	3.2586206	179.6207	178.5562	6.939408	32.29462
1501	6.63947	3.2585516	179.3830	178.3201	6.939469	32.29422
1502	6.63937	3.2585014	179.1456	178.0842	6.939501	32.29388
1503	6.63896	3.2583636	178.9081	177.8482	6.939614	32.29286
1504	6.63860	3.2582633	178.6860	177.6275	6.939702	32.29221
1505	6.63818	3.2582131	178.4452	177.3882	6.939772	32.29216
1506	6.63787	3.2581379	178.2079	177.1524	6.939842	32.29173
1507	6.63751	3.2580564	177.9583	176.9044	6.939920	32.29130
1508	6.63736	3.2579937	177.7327	176.6802	6.939965	32.29086
1509	6.63705	3.2579623	177.5078	176.4568	6.940013	32.29091
1510	6.63674	3.2578996	177.2791	176.2295	6.940077	32.29062
1511	6.63638	3.2578369	177.0356	175.9876	6.940146	32.29039
1512	6.63623	3.2577868	176.8073	175.7608	6.940185	32.29009
1513	6.63597	3.2576802	176.5728	175.5277	6.940264	32.28927
1514	6.63551	3.2576426	176.3383	175.2947	6.940333	32.28940
1515	6.63535	3.2576175	176.1192	175.0770	6.940360	32.28938
1516	6.63489	3.2575235	175.8908	174.8501	6.940457	32.28889
1517	6.63463	3.2574921	175.6688	174.6294	6.940499	32.28889
1518	6.63427	3.2574294	175.4371	174.3992	6.940569	32.28865
1519	6.63401	3.2573667	175.2026	174.1662	6.940626	32.28831
1520	6.63391	3.2573666	174.9804	173.9454	6.940634	32.28852
1521	6.63370	3.2573039	174.7460	173.7125	6.940685	32.28813
1522	6.63345	3.2572851	174.5055	173.4735	6.940720	32.28828
1523	6.63329	3.2571848	174.2741	173.2436	6.940784	32.28743
1524	6.63288	3.2571534	174.0365	173.0075	6.940844	32.28759
1525	6.63267	3.2570782	173.8174	172.7897	6.940902	32.28706
1526	6.63242	3.2570594	173.5920	172.5658	6.940937	32.28720
1527	6.63221	3.2569967	173.3696	172.3448	6.940988	32.28681
1528	6.63185	3.2569653	173.1446	172.1212	6.941043	32.28691
1529	6.63159	3.2569339	172.9100	171.8881	6.941084	32.28692
1530	6.63144	3.2568712	172.6786	171.6582	6.941129	32.28648
1531	6.63128	3.2568399	172.4442	171.4253	6.941158	32.28640
1532	6.63082	3.2567772	172.2096	171.1921	6.941240	32.28625
1533	6.63066	3.2567458	171.9723	170.9563	6.941270	32.28617
1534	6.63046	3.2567207	171.7165	170.7021	6.941302	32.28621
1535	6.63005	3.2566517	171.4790	170.4661	6.941380	32.28595
1536	6.62989	3.2566078	171.2475	170.2361	6.941416	32.28572
1537	6.62948	3.2565264	171.0252	170.0152	6.941501	32.28532
1538	6.62927	3.2565263	170.8031	169.7945	6.941521	32.28562
1539	6.62902	3.2564949	170.5805	169.5734	6.941563	32.28562
1540	6.62876	3.2563947	170.3584	169.3526	6.941640	32.28486
1541	6.62845	3.2563382	170.1240	169.1197	6.941700	32.28464
1542	6.62809	3.2563069	169.8988	168.8959	6.941754	32.28475
1543	6.62783	3.2562442	169.6732	168.6718	6.941812	32.28441
1544	6.62778	3.2562191	169.4266	168.4267	6.941825	32.28429
1545	6.62747	3.2561501	169.2044	168.2059	6.941892	32.28393
1546	6.62711	3.2560749	168.9699	167.9728	6.941968	32.28356
1547	6.62696	3.2560623	168.7357	167.7401	6.941987	32.28367
1548	6.62649	3.2559996	168.5069	167.5128	6.942070	32.28353
1549	6.62613	3.2558931	168.2849	167.2922	6.942161	32.28280
1550	6.62567	3.2558430	168.0566	167.0653	6.942237	32.28280
1551	6.62526	3.2557490	167.8281	166.8383	6.942329	32.28226
1552	6.62495	3.2557176	167.5967	166.6083	6.942377	32.28231
1553	6.62459	3.2556299	167.3591	166.3722	6.942459	32.28180
1554	6.62418	3.2555610	167.1185	166.1332	6.942538	32.28154
1555	6.62402	3.2554795	166.8898	165.9059	6.942592	32.28090
1556	6.62346	3.2554043	166.6680	165.6855	6.942693	32.28071
1557	6.62304	3.2553103	166.4455	165.4644	6.942785	32.28017
1558	6.62238	3.2552164	166.2142	165.2346	6.942907	32.27988
1559	6.62186	3.2551224	165.9828	165.0046	6.943011	32.27944
1560	6.62135	3.2550660	165.7605	164.7837	6.943096	32.27941
1561	6.62078	3.2549720	165.5323	164.5569	6.943207	32.27902
1562	6.62016	3.2548780	165.2978	164.3239	6.943323	32.27868
1563	6.61980	3.2548467	165.0693	164.0969	6.943377	32.27878
1564	6.61903	3.2547214	164.8530	163.8819	6.943528	32.27823
1565	6.61841	3.2546274	164.6247	163.6551	6.943644	32.27789
1566	6.61769	3.2545022	164.3966	163.4283	6.943789	32.27730
1567	6.61697	3.2544708	164.1680	163.2012	6.943887	32.27774
1568	6.61640	3.2543455	163.9335	162.9682	6.944012	32.27701
1569	6.61579	3.2542516	163.6899	162.7261	6.944128	32.27667
1570	6.61548	3.2541263	163.4645	162.5021	6.944223	32.27569
1571	6.61512	3.2540949	163.2361	162.2752	6.944277	32.27579
1572	6.61465	3.2540260	162.9957	162.0363	6.944362	32.27559
1573	6.61424	3.2539758	162.7518	161.7940	6.944432	32.27554
1574	6.61404	3.2538819	162.5357	161.5792	6.944499	32.27480
1575	6.61362	3.2537879	162.3012	161.3461	6.944590	32.27427
1576	6.61321	3.2537253	162.0819	161.1283	6.944666	32.27407
1577	6.61285	3.2536438	161.8476	160.8954	6.944745	32.27362
1578	6.61249	3.2535999	161.6222	160.6714	6.944806	32.27359
1579	6.61234	3.2535373	161.3938	160.4444	6.944851	32.27315
1580	6.61193	3.2534746	161.1563	160.2085	6.944927	32.27296
1581	6.61167	3.2533494	160.9249	159.9785	6.945015	32.27194
1582	6.61162	3.2533493	160.7056	159.7605	6.945017	32.27209
1583	6.61151	3.2533492	160.4803	159.5367	6.945024	32.27229
1584	6.61141	3.2533178	160.2458	159.3036	6.945047	32.27215
1585	6.61131	3.2532552	160.0146	159.0739	6.945086	32.27167
1586	6.61110	3.2531612	159.7888	158.8495	6.945153	32.27094
1587	6.61100	3.2531048	159.5578	158.6199	6.945188	32.27052
1588	6.61079	3.2530797	159.3233	158.3869	6.945221	32.27055
1589	6.61074	3.2529670	159.0732	158.1384	6.945278	32.26948
1590	6.61064	3.2529168	158.8483	157.9149	6.945310	32.26913
1591	6.61054	3.2528542	158.6196	157.6876	6.945349	32.26865
1592	6.61054	3.2528166	158.3915	157.4609	6.945363	32.26834
1593	6.61064	3.2527914	158.1661	157.2370	6.945358	32.26807
1594	6.61048	3.2527350	157.9223	156.9947	6.945399	32.26771
1595	6.61074	3.2527287	157.6787	156.7526	6.945366	32.26752
1596	6.61059	3.2526660	157.4535	156.5288	6.945411	32.26708
1597	6.61043	3.2526034	157.2312	156.3079	6.945456	32.26664
1598	6.61054	3.2524907	157.0090	156.0871	6.945495	32.26541
1599	6.61043	3.2524781	156.7715	155.8510	6.945509	32.26548
1600	6.61038	3.2524279	156.5305	155.6116	6.945535	32.26509
1601	6.61043	3.2523465	156.3022	155.3847	6.945564	32.26425
1602	6.61033	3.2522901	156.0770	155.1609	6.945600	32.26384
1603	6.61059	3.2522274	155.8516	154.9369	6.945595	32.26301
1604	6.61064	3.2521961	155.6142	154.7010	6.945599	32.26273
1605	6.61064	3.2521397	155.3890	154.4772	6.945623	32.26222
1606	6.61074	3.2520770	155.1481	154.2378	6.945636	32.26154
1607	6.61084	3.2520457	154.9229	154.0141	6.945635	32.26121
1608	6.61084	3.2520143	154.6974	153.7899	6.945645	32.26097
1609	6.61090	3.2519516	154.4689	153.5629	6.945665	32.26034
1610	6.61095	3.2519203	154.2469	153.3422	6.945670	32.26005
1611	6.61110	3.2519014	154.0183	153.1151	6.945656	32.25981
1612	6.61105	3.2518889	153.7839	152.8821	6.945663	32.25983
1613	6.61110	3.2518262	153.5585	152.6581	6.945684	32.25920
1614	6.61120	3.2517948	153.3241	152.4252	6.945682	32.25887
1615	6.61146	3.2517948	153.0925	152.1950	6.945646	32.25873
1616	6.61141	3.2517634	152.8701	151.9740	6.945663	32.25854
1617	6.61151	3.2517320	152.6481	151.7534	6.945661	32.25820
1618	6.61167	3.2516944	152.4198	151.5265	6.945656	32.25775
1619	6.61172	3.2517006	152.1913	151.2995	6.945642	32.25788
1620	6.61177	3.2516692	151.9720	151.0815	6.945647	32.25759
1621	6.61182	3.2516692	151.7435	150.8544	6.945636	32.25765
1622	6.61187	3.2516378	151.5182	150.6306	6.945640	32.25736
1623	6.61208	3.2516064	151.2837	150.3975	6.945626	32.25693
1624	6.61208	3.2515751	151.0493	150.1645	6.945637	32.25670
1625	6.61213	3.2516063	150.8117	149.9285	6.945610	32.25711
1626	6.61239	3.2515436	150.5742	149.6924	6.945605	32.25629
1627	6.61259	3.2515749	150.3398	149.4595	6.945559	32.25655
1628	6.61280	3.2515748	150.1113	149.2324	6.945530	32.25646
1629	6.61306	3.2515434	149.8827	149.0052	6.945509	32.25598
1630	6.61311	3.2515121	149.6544	148.7783	6.945514	32.25569
1631	6.61337	3.2515120	149.4322	148.5575	6.945478	32.25556
1632	6.61342	3.2514493	149.2008	148.3275	6.945498	32.25493
1633	6.61373	3.2514493	148.9755	148.1036	6.945456	32.25474
1634	6.61393	3.2514492	148.7468	147.8763	6.945426	32.25466
1635	6.61419	3.2514303	148.5127	147.6437	6.945400	32.25432
1636	6.61434	3.2514178	148.2870	147.4194	6.945382	32.25414
1637	6.61465	3.2513864	148.0555	147.1894	6.945356	32.25361
1638	6.61491	3.2513863	147.8242	146.9594	6.945320	32.25348
1639	6.61522	3.2513862	147.5927	146.7294	6.945277	32.25330
1640	6.61553	3.2513549	147.3645	146.5026	6.945251	32.25277
1641	6.61563	3.2513360	147.1358	146.2754	6.945243	32.25257
1642	6.61609	3.2513234	146.9045	146.0455	6.945188	32.25211
1643	6.61625	3.2513234	146.6791	145.8215	6.945165	32.25207
1644	6.61640	3.2512920	146.4568	145.6006	6.945157	32.25168
1645	6.61656	3.2512606	146.2344	145.3796	6.945149	32.25130
1646	6.61671	3.2512543	146.0001	145.1467	6.945129	32.25119
1647	6.61692	3.2512605	145.7471	144.8952	6.945095	32.25119
1648	6.61712	3.2512354	145.5217	144.6713	6.945078	32.25082
1649	6.61733	3.2512040	145.2782	144.4293	6.945064	32.25040
1650	6.61743	3.2512040	145.0527	144.2051	6.945046	32.25041
1651	6.61764	3.2511601	144.8090	143.9630	6.945038	32.24985
1652	6.61779	3.2511412	144.5778	143.7332	6.945024	32.24960
1653	6.61810	3.2511099	144.3492	143.5060	6.944997	32.24908
1654	6.61821	3.2511098	144.1209	143.2791	6.944980	32.24909
1655	6.61846	3.2510784	143.8984	143.0580	6.944960	32.24860
1656	6.61851	3.2510471	143.6730	142.8340	6.944964	32.24832
1657	6.61851	3.2510157	143.4448	142.6072	6.944975	32.24808
1658	6.61877	3.2510156	143.2164	142.3802	6.944939	32.24794
1659	6.61882	3.2509530	142.9907	142.1559	6.944959	32.24731
1660	6.61903	3.2509529	142.7565	141.9231	6.944929	32.24723
1661	6.61923	3.2509216	142.5281	141.6962	6.944915	32.24680
1662	6.61929	3.2509215	142.2997	141.4692	6.944904	32.24686
1663	6.61939	3.2509214	142.0681	141.2391	6.944887	32.24687
1664	6.61954	3.2508901	141.8336	141.0059	6.944879	32.24649
1665	6.61970	3.2508587	141.6022	140.7760	6.944871	32.24611
1666	6.61990	3.2508336	141.3674	140.5427	6.944853	32.24575
1667	6.61990	3.2507960	141.1362	140.3129	6.944867	32.24544
1668	6.62001	3.2507959	140.8957	140.0739	6.944850	32.24546
1669	6.61996	3.2507958	140.6550	139.8346	6.944851	32.24562
1670	6.62006	3.2507332	140.4205	139.6016	6.944864	32.24495
1671	6.62026	3.2507143	140.2014	139.3838	6.944844	32.24465
1672	6.62037	3.2506705	139.9910	139.1747	6.944849	32.24417
1673	6.62062	3.2507330	139.7658	138.9510	6.944782	32.24472
1674	6.62062	3.2506703	139.5465	138.7330	6.944809	32.24414
1675	6.62062	3.2506703	139.3211	138.5090	6.944804	32.24424
1676	6.62078	3.2506577	139.1078	138.2970	6.944787	32.24406
1677	6.62099	3.2506701	138.8914	138.0819	6.944751	32.24410
1678	6.62124	3.2506388	138.6876	137.8794	6.944731	32.24361
1679	6.62114	3.2506074	138.4775	137.6705	6.944755	32.24346
1680	6.62140	3.2506073	138.2826	137.4769	6.944720	32.24331
1681	6.62155	3.2505760	138.1029	137.2983	6.944713	32.24291
1682	6.62160	3.2505759	137.9080	137.1046	6.944702	32.24295
1683	6.62176	3.2505696	137.7161	136.9138	6.944683	32.24283
1684	6.62181	3.2505758	137.5241	136.7230	6.944669	32.24294
1685	6.62191	3.2505758	137.3353	136.5354	6.944653	32.24293
1686	6.62212	3.2505131	137.1405	136.3418	6.944655	32.24214
1687	6.62217	3.2505131	136.9607	136.1631	6.944645	32.24217
1688	6.62227	3.2505130	136.7628	135.9664	6.944628	32.24217
1689	6.62243	3.2504504	136.5678	135.7726	6.944637	32.24143
1690	6.62258	3.2504816	136.3820	135.5880	6.944599	32.24171
1691	6.62274	3.2504190	136.1901	135.3972	6.944607	32.24097
1692	6.62294	3.2503876	136.0016	135.2099	6.944594	32.24052
1693	6.62310	3.2503876	135.7882	134.9978	6.944570	32.24048
1694	6.62340	3.2503875	135.5843	134.7951	6.944529	32.24028
1695	6.62366	3.2503311	135.3863	134.5984	6.944522	32.23951
1696	6.62392	3.2502998	135.1976	134.4108	6.944502	32.23901
1697	6.62418	3.2502684	135.0055	134.2199	6.944482	32.23852
1698	6.62433	3.2502371	134.8106	134.0262	6.944475	32.23812
1699	6.62469	3.2502370	134.6186	133.8354	6.944428	32.23787
1700	6.62485	3.2501744	134.4206	133.6386	6.944436	32.23713
1701	6.62505	3.2501430	134.2349	133.4541	6.944422	32.23668
1702	6.62521	3.2500804	134.0339	133.2543	6.944431	32.23594
1703	6.62546	3.2500490	133.8481	133.0696	6.944411	32.23544
1704	6.62572	3.2500490	133.6533	132.8760	6.944376	32.23529
1705	6.62577	3.2499738	133.4646	132.6885	6.944403	32.23450
1706	6.62608	3.2499550	133.2636	132.4887	6.944371	32.23410
1707	6.62619	3.2499549	133.0684	132.2947	6.944354	32.23410
1708	6.62634	3.2498923	132.8796	132.1071	6.944363	32.23335
1709	6.62655	3.2498610	132.6878	131.9164	6.944349	32.23290
1710	6.62675	3.2498296	132.5083	131.7380	6.944336	32.23245
1711	6.62691	3.2497983	132.3163	131.5473	6.944329	32.23205
1712	6.62711	3.2497982	132.1275	131.3596	6.944300	32.23195
1713	6.62721	3.2497669	131.9264	131.1597	6.944299	32.23160
1714	6.62737	3.2497418	131.7347	130.9692	6.944289	32.23127
1715	6.62768	3.2497042	131.5398	130.7755	6.944266	32.23066
1716	6.62778	3.2497041	131.3385	130.5754	6.944249	32.23065
1717	6.62794	3.2496728	131.1468	130.3849	6.944242	32.23025
1718	6.62819	3.2496414	130.9519	130.1912	6.944222	32.22976
1719	6.62835	3.2496101	130.7570	129.9975	6.944215	32.22936
1720	6.62850	3.2495600	130.5470	129.7888	6.944217	32.22877
1721	6.62886	3.2495474	130.3459	129.5889	6.944175	32.22838
1722	6.62891	3.2494910	130.1600	129.4041	6.944193	32.22780
1723	6.62907	3.2494284	129.9741	129.2194	6.944202	32.22706
1724	6.62948	3.2493971	129.7732	129.0197	6.944163	32.22642
1725	6.62989	3.2493845	129.5813	128.8290	6.944115	32.22598
1726	6.63025	3.2492718	129.3863	128.6352	6.944124	32.22450
1727	6.63077	3.2491779	129.1854	128.4355	6.944104	32.22308
1728	6.63087	3.2491465	128.9872	128.2386	6.944103	32.22273
1729	6.63123	3.2491152	128.7865	128.0391	6.944071	32.22214
1730	6.63164	3.2490526	128.5764	127.8302	6.944047	32.22116
1731	6.63211	3.2489899	128.3871	127.6421	6.944018	32.22013
1732	6.63247	3.2489273	128.1801	127.4364	6.944002	32.21920
1733	6.63283	3.2488960	127.9884	127.2458	6.943970	32.21861
1734	6.63334	3.2488834	127.7904	127.0490	6.943909	32.21808
1735	6.63365	3.2488333	127.5955	126.8553	6.943893	32.21733
1736	6.63391	3.2488019	127.3975	126.6585	6.943873	32.21683
1737	6.63432	3.2487706	127.1967	126.4589	6.943835	32.21620
1738	6.63463	3.2487643	126.9956	126.2590	6.943796	32.21593
1739	6.63525	3.2487329	126.7792	126.0440	6.943732	32.21511
1740	6.63561	3.2487391	126.5722	125.8383	6.943681	32.21494
1741	6.63592	3.2487078	126.3650	125.6323	6.943655	32.21440
1742	6.63633	3.2486827	126.1638	125.4324	6.943614	32.21383
1743	6.63669	3.2486763	125.9597	125.2296	6.943569	32.21352
1744	6.63674	3.2486513	125.7648	125.0358	6.943571	32.21329
1745	6.63721	3.2486199	125.5670	124.8392	6.943526	32.21260
1746	6.63751	3.2486199	125.3721	124.6455	6.943485	32.21240
1747	6.63787	3.2485885	125.1741	124.4487	6.943453	32.21181
1748	6.63818	3.2485884	124.9762	124.2520	6.943411	32.21161
1749	6.63849	3.2485571	124.7781	124.0551	6.943385	32.21107
1750	6.63890	3.2485570	124.5771	123.8554	6.943331	32.21078
1751	6.63927	3.2485570	124.3759	123.6554	6.943283	32.21053
1752	6.63947	3.2485256	124.1780	123.4587	6.943270	32.21009
1753	6.63988	3.2484943	123.9772	123.2591	6.943231	32.20945
1754	6.64035	3.2484629	123.7822	123.0653	6.943187	32.20876
1755	6.64045	3.2484316	123.5812	122.8655	6.943186	32.20842
1756	6.64102	3.2484315	123.3742	122.6597	6.943113	32.20798
1757	6.64138	3.2484315	123.1728	122.4596	6.943065	32.20774
1758	6.64153	3.2484001	122.9750	122.2630	6.943058	32.20734
1759	6.64200	3.2483500	122.7711	122.0603	6.943022	32.20645
1760	6.64220	3.2483687	122.5668	121.8572	6.942984	32.20656
1761	6.64261	3.2483374	122.3782	121.6698	6.942945	32.20591
1762	6.64308	3.2483060	122.1738	121.4667	6.942901	32.20523
1763	6.64333	3.2483060	121.9788	121.2729	6.942865	32.20508
1764	6.64359	3.2482433	121.7872	121.0824	6.942861	32.20424
1765	6.64385	3.2482746	121.5922	120.8886	6.942811	32.20443
1766	6.64421	3.2482432	121.3911	120.6887	6.942778	32.20384
1767	6.64436	3.2482306	121.1929	120.4917	6.942762	32.20365
1768	6.64462	3.2481805	120.9862	120.2862	6.942751	32.20296
1769	6.64488	3.2482117	120.7818	120.0832	6.942700	32.20316
1770	6.64483	3.2481804	120.5810	119.8836	6.942717	32.20296
1771	6.64498	3.2481491	120.3740	119.6778	6.942710	32.20256
1772	6.64503	3.2481114	120.1546	119.4598	6.942718	32.20221
1773	6.64519	3.2480864	119.9565	119.2628	6.942707	32.20188
1774	6.64524	3.2480550	119.7525	119.0601	6.942712	32.20158
1775	6.64524	3.2479924	119.5605	118.8692	6.942739	32.20098
1776	6.64519	3.2479673	119.3565	118.6665	6.942754	32.20085
1777	6.64534	3.2479610	119.1463	118.4575	6.942734	32.20074
1778	6.64529	3.2479297	118.9391	118.2516	6.942751	32.20054
1779	6.64545	3.2478983	118.7290	118.0428	6.942743	32.20015
1780	6.64545	3.2478420	118.5158	117.8309	6.942767	32.19963
1781	6.64545	3.2478106	118.2962	117.6126	6.942778	32.19939
1782	6.64550	3.2477605	118.0710	117.3888	6.942792	32.19890
1783	6.64576	3.2477166	117.8609	117.1799	6.942778	32.19827
1784	6.64591	3.2476853	117.6509	116.9712	6.942770	32.19788
1785	6.64627	3.2476540	117.4373	116.7590	6.942738	32.19730
1786	6.64653	3.2476226	117.2243	116.5472	6.942718	32.19681
1787	6.64684	3.2475913	117.0142	116.3384	6.942691	32.19628
1788	6.64715	3.2475849	116.8038	116.1293	6.942653	32.19602
1789	6.64735	3.2475599	116.5968	115.9235	6.942636	32.19565
1790	6.64766	3.2475285	116.3897	115.7177	6.942610	32.19511
1791	6.64782	3.2474909	116.1764	115.5056	6.942605	32.19465
1792	6.64797	3.2474971	115.9480	115.2787	6.942578	32.19468
1793	6.64818	3.2474658	115.7317	115.0636	6.942564	32.19425
1794	6.64843	3.2474657	115.5215	114.8548	6.942529	32.19410
1795	6.64864	3.2474344	115.3174	114.6518	6.942515	32.19366
1796	6.64879	3.2474030	115.1013	114.4371	6.942508	32.19327
1797	6.64890	3.2473717	114.8850	114.2221	6.942506	32.19293
1798	6.64900	3.2473403	114.6775	114.0159	6.942505	32.19259
1799	6.64916	3.2473403	114.4614	113.8010	6.942481	32.19255
1800	6.64926	3.2472839	114.2421	113.5830	6.942492	32.19193
1801	6.64936	3.2472776	114.0350	113.3772	6.942479	32.19187
1802	6.64952	3.2472462	113.8219	113.1654	6.942471	32.19148
1803	6.64967	3.2472274	113.5994	112.9443	6.942457	32.19123
1804	6.65003	3.2471835	113.3892	112.7353	6.942431	32.19051
1805	6.65019	3.2471209	113.1821	112.5295	6.942439	32.18977
1806	6.65039	3.2471521	112.9658	112.3145	6.942394	32.19002
1807	6.65065	3.2470770	112.7556	112.1055	6.942395	32.18906
1808	6.65080	3.2470895	112.5484	111.8996	6.942366	32.18915
1809	6.65111	3.2470644	112.3356	111.6880	6.942337	32.18868
1810	6.65137	3.2470330	112.1282	111.4819	6.942317	32.18819
1811	6.65147	3.2469892	111.9150	111.2700	6.942321	32.18771
1812	6.65168	3.2469704	111.7137	111.0699	6.942302	32.18741
1813	6.65173	3.2469703	111.5005	110.8580	6.942291	32.18746
1814	6.65183	3.2469702	111.2844	110.6433	6.942274	32.18746
1815	6.65204	3.2469389	111.0773	110.4373	6.942260	32.18702
1816	6.65199	3.2469388	110.8580	110.2193	6.942262	32.18718
1817	6.65220	3.2469387	110.6479	110.0105	6.942232	32.18708
1818	6.65225	3.2468449	110.4406	109.8045	6.942268	32.18610
1819	6.65245	3.2468135	110.2211	109.5864	6.942254	32.18566
1820	6.65256	3.2467572	110.0051	109.3716	6.942265	32.18505
1821	6.65276	3.2467196	109.7857	109.1535	6.942254	32.18455
1822	6.65307	3.2466382	109.5754	108.9445	6.942253	32.18346
1823	6.65307	3.2465631	109.3681	108.7385	6.942286	32.18273
1824	6.65328	3.2465192	109.1459	108.5176	6.942278	32.18216
1825	6.65343	3.2464379	108.9329	108.3058	6.942295	32.18123
1826	6.65359	3.2463690	108.7163	108.0906	6.942306	32.18043
1827	6.65348	3.2463439	108.4941	107.8697	6.942326	32.18035
1828	6.65364	3.2462813	108.2717	107.6486	6.942334	32.17962
1829	6.65374	3.2462562	108.0585	107.4367	6.942329	32.17935
1830	6.65379	3.2461936	107.8544	107.2339	6.942350	32.17871
1831	6.65400	3.2461623	107.6351	107.0159	6.942336	32.17828
1832	6.65405	3.2461122	107.4280	106.8100	6.942350	32.17778
1833	6.65384	3.2460746	107.2086	106.5919	6.942389	32.17766
1834	6.65390	3.2460370	106.9985	106.3831	6.942397	32.17730
1835	6.65390	3.2459869	106.7701	106.1561	6.942417	32.17686
1836	6.65384	3.2458805	106.5385	105.9259	6.942471	32.17585
1837	6.65374	3.2458429	106.3282	105.7168	6.942497	32.17563
1838	6.65379	3.2457866	106.1150	105.5049	6.942515	32.17506
1839	6.65353	3.2457240	105.9016	105.2928	6.942572	32.17472
1840	6.65359	3.2456926	105.6947	105.0872	6.942577	32.17442
1841	6.65348	3.2456613	105.4814	104.8751	6.942601	32.17428
1842	6.65348	3.2455987	105.2620	104.6570	6.942627	32.17369
1843	6.65338	3.2455736	105.0549	104.4512	6.942648	32.17361
1844	6.65343	3.2455298	104.8386	104.2362	6.942658	32.17318
1845	6.65333	3.2454797	104.6317	104.0305	6.942691	32.17283
1846	6.65328	3.2453983	104.4121	103.8122	6.942733	32.17208
1847	6.65312	3.2453420	104.1807	103.5822	6.942775	32.17172
1848	6.65286	3.2453357	103.9673	103.3701	6.942805	32.17199
1849	6.65286	3.2452606	103.7572	103.1613	6.942837	32.17127
1850	6.65256	3.2451604	103.5409	102.9462	6.942920	32.17056
1851	6.65240	3.2450728	103.3246	102.7313	6.942977	32.16984
1852	6.65220	3.2450102	103.1052	102.5131	6.943029	32.16945
1853	6.65204	3.2449289	102.8890	102.2982	6.943083	32.16881
1854	6.65189	3.2448850	102.6818	102.0923	6.943119	32.16857
1855	6.65183	3.2448225	102.4776	101.8894	6.943152	32.16803
1856	6.65158	3.2447786	102.2615	101.6745	6.943200	32.16789
1857	6.65147	3.2447223	102.0512	101.4655	6.943236	32.16747
1858	6.65142	3.2447035	101.8470	101.2625	6.943248	32.16740
1859	6.65147	3.2446721	101.6371	101.0538	6.943252	32.16711
1860	6.65137	3.2446158	101.4207	100.8388	6.943288	32.16669
1861	6.65132	3.2446095	101.1921	100.6115	6.943293	32.16678
1862	6.65142	3.2445781	100.9727	100.3934	6.943291	32.16644
1863	6.65158	3.2445155	100.7565	100.1786	6.943299	32.16571
1864	6.65189	3.2445155	100.5403	99.9636	6.943257	32.16552
1865	6.65220	3.2444529	100.3299	99.7545	6.943246	32.16464
1866	6.65266	3.2444528	100.1259	99.5517	6.943186	32.16430
1867	6.65343	3.2444277	99.9217	99.3487	6.943101	32.16340
1868	6.65405	3.2443964	99.7086	99.1369	6.943037	32.16257
1869	6.65451	3.2443588	99.4923	98.9219	6.942995	32.16183
1870	6.65493	3.2443900	99.2789	98.7098	6.942925	32.16188
1871	6.65544	3.2443211	99.0659	98.4980	6.942893	32.16074
1872	6.65590	3.2442898	98.8405	98.2740	6.942847	32.16007
1873	6.65637	3.2442460	98.6301	98.0649	6.942808	32.15925
1874	6.65668	3.2442334	98.4169	97.8529	6.942773	32.15892
1875	6.65694	3.2441895	98.1914	97.6288	6.942759	32.15831
1876	6.65709	3.2441707	97.9752	97.4138	6.942745	32.15806
1877	6.65755	3.2441269	97.7437	97.1837	6.942705	32.15725
1878	6.65771	3.2441080	97.5305	96.9718	6.942692	32.15700
1879	6.65797	3.2440830	97.3050	96.7476	6.942668	32.15659
1880	6.65812	3.2440766	97.0857	96.5296	6.942648	32.15648
1881	6.65833	3.2440391	96.8694	96.3146	6.942637	32.15597
1882	6.65843	3.2439890	96.6714	96.1178	6.942645	32.15542
1883	6.65864	3.2439514	96.4670	95.9146	6.942635	32.15491
1884	6.65864	3.2439263	96.2602	95.7091	6.942643	32.15473
1885	6.65889	3.2438950	96.0316	95.4818	6.942622	32.15425
1886	6.65905	3.2438637	95.8153	95.2668	6.942614	32.15387
1887	6.65910	3.2438636	95.5958	95.0487	6.942604	32.15392
1888	6.65920	3.2438073	95.3918	94.8458	6.942615	32.15330
1889	6.65925	3.2438009	95.1814	94.6367	6.942607	32.15328
1890	6.65931	3.2437571	94.9470	94.4036	6.942618	32.15286
1891	6.65915	3.2437383	94.7185	94.1766	6.942641	32.15291
1892	6.65931	3.2436882	94.4990	93.9584	6.942642	32.15232
1893	6.65931	3.2436444	94.2797	93.7404	6.942659	32.15194
1894	6.65936	3.2435818	94.0635	93.5255	6.942680	32.15131
1895	6.65920	3.2435817	93.8564	93.3196	6.942694	32.15155
1896	6.65920	3.2434691	93.6341	93.0986	6.942745	32.15042
1897	6.65925	3.2433065	93.4177	92.8835	6.942815	32.14868
1898	6.65925	3.2432126	93.2199	92.6868	6.942857	32.14775
1899	6.65941	3.2430875	93.0124	92.4806	6.942896	32.14633
1900	6.65951	3.2429312	92.8022	92.2717	6.942957	32.14461
1901	6.65956	3.2428061	92.5799	92.0506	6.943008	32.14329
1902	6.65977	3.2427123	92.3728	91.8448	6.943025	32.14217
1903	6.65987	3.2426559	92.1535	91.6268	6.943036	32.14156
1904	6.65998	3.2425683	91.9309	91.4055	6.943062	32.14060
1905	6.66013	3.2425308	91.7177	91.1936	6.943058	32.14014
1906	6.66054	3.2424494	91.4954	90.9726	6.943044	32.13897
1907	6.66070	3.2424056	91.2822	90.7606	6.943042	32.13844
1908	6.66121	3.2423743	91.0749	90.5546	6.942991	32.13771
1909	6.66152	3.2423742	90.8587	90.3397	6.942949	32.13753
1910	6.66188	3.2423429	90.6512	90.1334	6.942917	32.13694
1911	6.66219	3.2423428	90.4441	89.9275	6.942875	32.13675
1912	6.66271	3.2423052	90.2341	89.7188	6.942827	32.13595
1913	6.66312	3.2422802	90.0147	89.5007	6.942785	32.13539
1914	6.66338	3.2422488	89.8013	89.2885	6.942765	32.13491
1915	6.66374	3.2422488	89.5973	89.0858	6.942717	32.13466
1916	6.66405	3.2422112	89.3658	88.8556	6.942693	32.13407
1917	6.66425	3.2422486	89.1465	88.6376	6.942645	32.13439
1918	6.66451	3.2422173	88.9300	88.4224	6.942625	32.13391
1919	6.66467	3.2422110	88.7168	88.2105	6.942605	32.13379
1920	6.66503	3.2421859	88.5005	87.9954	6.942569	32.13328
1921	6.66544	3.2421858	88.2811	87.7774	6.942514	32.13300
1922	6.66580	3.2421858	88.0648	87.5623	6.942466	32.13276
1923	6.66626	3.2421544	87.8517	87.3505	6.942421	32.13208
1924	6.66678	3.2421856	87.6351	87.1352	6.942339	32.13205
1925	6.66765	3.2422043	87.4159	86.9172	6.942219	32.13153
1926	6.66910	3.2422542	87.1904	86.6931	6.942015	32.13083
1927	6.67033	3.2423604	86.9866	86.4905	6.941809	32.13094
1928	6.67188	3.2424041	86.7852	86.2903	6.941596	32.13006
1929	6.67353	3.2424040	86.5719	86.0783	6.941392	32.12861
1930	6.67523	3.2424664	86.3679	85.8754	6.941151	32.12780
1931	6.67709	3.2425038	86.1455	85.6544	6.940904	32.12658
1932	6.67879	3.2425913	85.9322	85.4423	6.940650	32.12604
1933	6.68034	3.2426537	85.7128	85.2242	6.940428	32.12538
1934	6.68188	3.2426536	85.4933	85.0060	6.940237	32.12403
1935	6.68327	3.2426223	85.2862	84.8002	6.940080	32.12248
1936	6.68415	3.2426222	85.0790	84.5942	6.939969	32.12176
1937	6.68508	3.2425596	84.8719	84.3883	6.939884	32.12030
1938	6.68580	3.2424970	84.6649	84.1825	6.939823	32.11903
1939	6.68647	3.2424782	84.4638	83.9826	6.939747	32.11829
1940	6.68699	3.2424656	84.2413	83.7615	6.939687	32.11778
1941	6.68735	3.2424156	84.0221	83.5435	6.939663	32.11699
1942	6.68766	3.2423905	83.7935	83.3162	6.939633	32.11653
1943	6.68786	3.2423404	83.5648	83.0889	6.939628	32.11590
1944	6.68812	3.2423403	83.3516	82.8770	6.939593	32.11576
1945	6.68822	3.2423278	83.1415	82.6681	6.939582	32.11562
1946	6.68833	3.2422714	82.9252	82.4531	6.939593	32.11501
1947	6.68838	3.2422464	82.7150	82.2441	6.939595	32.11478
1948	6.68848	3.2422150	82.5049	82.0352	6.939593	32.11444
1949	6.68853	3.2421837	82.2854	81.8170	6.939598	32.11415
1950	6.68853	3.2421524	82.0720	81.6049	6.939609	32.11391
1951	6.68853	3.2421211	81.8650	81.3991	6.939620	32.11366
1952	6.68853	3.2420898	81.6486	81.1840	6.939631	32.11342
1953	6.68864	3.2420959	81.4415	80.9781	6.939611	32.11349
1954	6.68859	3.2420271	81.2252	80.7631	6.939647	32.11289
1955	6.68869	3.2420333	81.0088	80.5479	6.939627	32.11296
1956	6.68848	3.2419707	80.7925	80.3329	6.939678	32.11257
1957	6.68838	3.2419144	80.5762	80.1179	6.939714	32.11215
1958	6.68817	3.2418768	80.3628	79.9058	6.939753	32.11203
1959	6.68781	3.2417518	80.1556	79.6998	6.939854	32.11109
1960	6.68750	3.2416892	79.9423	79.4877	6.939918	32.11080
1961	6.68714	3.2416266	79.7321	79.2787	6.939988	32.11055
1962	6.68683	3.2415641	79.5221	79.0700	6.940052	32.11025
1963	6.68642	3.2414765	79.3026	78.8518	6.940140	32.10978
1964	6.68585	3.2413764	79.0771	78.6276	6.940254	32.10932
1965	6.68539	3.2413263	78.8576	78.4094	6.940330	32.10931
1966	6.68482	3.2411325	78.6414	78.1944	6.940490	32.10781
1967	6.68394	3.2410387	78.4311	77.9854	6.940638	32.10770
1968	6.68286	3.2409449	78.2239	77.7794	6.940810	32.10779
1969	6.68204	3.2407574	78.0107	77.5675	6.940999	32.10660
1970	6.68131	3.2405948	77.8128	77.3707	6.941162	32.10559
1971	6.68044	3.2404823	77.5993	77.1585	6.941319	32.10527
1972	6.67972	3.2403822	77.3709	76.9315	6.941451	32.10496
1973	6.67936	3.2402696	77.1395	76.7014	6.941546	32.10417
1974	6.67874	3.2401821	76.9202	76.4834	6.941659	32.10389
1975	6.67848	3.2401383	76.7007	76.2652	6.941707	32.10376
1976	6.67827	3.2400007	76.4843	76.0500	6.941796	32.10254
1977	6.67791	3.2399569	76.2739	75.8409	6.941857	32.10250
1978	6.67750	3.2398881	76.0607	75.6289	6.941936	32.10223
1979	6.67714	3.2398318	75.8596	75.4290	6.942003	32.10204
1980	6.67683	3.2397380	75.6402	75.2109	6.942083	32.10141
1981	6.67647	3.2396442	75.4300	75.0019	6.942168	32.10082
1982	6.67611	3.2395941	75.2137	74.7869	6.942232	32.10071
1983	6.67570	3.2395191	75.0004	74.5749	6.942315	32.10037
1984	6.67539	3.2394128	74.7903	74.3660	6.942400	32.09959
1985	6.67497	3.2393003	74.5769	74.1538	6.942501	32.09884
1986	6.67441	3.2392065	74.3545	73.9327	6.942612	32.09845
1987	6.67358	3.2391189	74.1443	73.7238	6.942750	32.09836
1988	6.67327	3.2389939	73.9433	73.5239	6.942845	32.09737
1989	6.67265	3.2388564	73.7330	73.3149	6.942984	32.09654
1990	6.67188	3.2387438	73.5168	73.0999	6.943129	32.09613
1991	6.67090	3.2386188	73.3032	72.8876	6.943304	32.09578
1992	6.66982	3.2384376	73.0870	72.6727	6.943521	32.09490
1993	6.66905	3.2382126	72.8768	72.4637	6.943721	32.09325
1994	6.66827	3.2380313	72.6606	72.2487	6.943900	32.09209
1995	6.66735	3.2379438	72.4472	72.0366	6.944051	32.09210
1996	6.66647	3.2377875	72.2399	71.8305	6.944230	32.09130
1997	6.66559	3.2376313	72.0298	71.6216	6.944409	32.09051
1998	6.66482	3.2374751	71.8257	71.4187	6.944576	32.08961
1999	6.66410	3.2373251	71.6093	71.2035	6.944733	32.08874
2000	6.66358	3.2372000	71.3959	70.9914	6.944853	32.08795
2001	6.66286	3.2370938	71.1827	70.7794	6.944988	32.08756
2002	6.66219	3.2369500	70.9724	70.5704	6.945136	32.08671
2003	6.66162	3.2368001	70.7591	70.3583	6.945275	32.08569
2004	6.66075	3.2365814	70.5519	70.1523	6.945485	32.08421
2005	6.66028	3.2365063	70.3417	69.9434	6.945573	32.08392
2006	6.65987	3.2364251	70.1194	69.7223	6.945659	32.08352
2007	6.65920	3.2363313	69.9029	69.5071	6.945782	32.08322
2008	6.65874	3.2361251	69.6866	69.2921	6.945936	32.08149
2009	6.65817	3.2359002	69.4703	69.0771	6.946111	32.07965
2010	6.65771	3.2358064	69.2691	68.8770	6.946210	32.07915
2011	6.65740	3.2357439	69.0622	68.6713	6.946274	32.07885
2012	6.65724	3.2357438	68.8397	68.4501	6.946288	32.07910
2013	6.65714	3.2355939	68.6354	68.2470	6.946370	32.07765
2014	6.65704	3.2354189	68.4252	68.0380	6.946465	32.07592
2015	6.65704	3.2354376	68.2058	67.8199	6.946451	32.07623
2016	6.65719	3.2353750	67.9833	67.5987	6.946459	32.07550
2017	6.65735	3.2352063	67.7639	67.3806	6.946519	32.07361
2018	6.65755	3.2350938	67.5418	67.1598	6.946545	32.07228
2019	6.65781	3.2350126	67.3192	66.9384	6.946550	32.07126
2020	6.65838	3.2348813	67.0998	66.7204	6.946542	32.06939
2021	6.65879	3.2347751	66.8896	66.5114	6.946540	32.06793
2022	6.65936	3.2346564	66.6732	66.2962	6.946526	32.06620
2023	6.66018	3.2345126	66.4600	66.0843	6.946493	32.06395
2024	6.66106	3.2344813	66.2528	65.8782	6.946398	32.06289
2025	6.66178	3.2344188	66.0362	65.6629	6.946337	32.06163
2026	6.66260	3.2342938	65.8232	65.4512	6.946295	32.05958
2027	6.66338	3.2341439	65.6097	65.2389	6.946271	32.05731
2028	6.66430	3.2340376	65.3874	65.0179	6.946207	32.05538
2029	6.66539	3.2339501	65.1710	64.8028	6.946115	32.05351
2030	6.66662	3.2337752	64.9545	64.5875	6.946047	32.05053
2031	6.66755	3.2336752	64.7382	64.3725	6.945980	32.04867
2032	6.66874	3.2335378	64.5342	64.1696	6.945901	32.04615
2033	6.67028	3.2334815	64.3149	63.9516	6.945737	32.04419
2034	6.67167	3.2334252	64.1046	63.7425	6.945592	32.04237
2035	6.67312	3.2333065	63.8913	63.5305	6.945471	32.03981
2036	6.67466	3.2331503	63.6812	63.3216	6.945357	32.03675
2037	6.67631	3.2330253	63.4832	63.1247	6.945216	32.03393
2038	6.67760	3.2329316	63.2698	62.9125	6.945102	32.03180
2039	6.67905	3.2328128	63.0564	62.7004	6.944981	32.02924
2040	6.68106	3.2327191	62.8460	62.4912	6.944780	32.02644
2041	6.68302	3.2325941	62.6389	62.2853	6.944600	32.02333
2042	6.68585	3.2325316	62.4227	62.0704	6.944284	32.02009
2043	6.68982	3.2324815	62.1972	61.8462	6.943823	32.01594
2044	6.69354	3.2325002	61.9838	61.6341	6.943360	32.01278
2045	6.69720	3.2323939	61.7645	61.4160	6.942965	32.00829
2046	6.70050	3.2324687	61.5604	61.2131	6.942525	32.00613
2047	6.70334	3.2323625	61.3470	61.0010	6.942230	32.00241
2048	6.70622	3.2324373	61.1370	60.7921	6.941839	32.00064
2049	6.70932	3.2324060	60.9233	60.5797	6.941475	31.99750
2050	6.71200	3.2324809	60.7286	60.3861	6.941110	31.99591
2051	6.71443	3.2324495	60.5089	60.1676	6.940827	31.99341
2052	6.71644	3.2325306	60.2896	59.9496	6.940539	31.99252
2053	6.71830	3.2325430	60.0733	59.7346	6.940304	31.99103
2054	6.71964	3.2325305	59.8600	59.5225	6.940143	31.98974
2055	6.72088	3.2325928	59.6436	59.3073	6.939958	31.98937
2056	6.72191	3.2325927	59.4364	59.1014	6.939829	31.98850
2057	6.72305	3.2326301	59.2200	58.8863	6.939669	31.98795
2058	6.72408	3.2325551	59.0069	58.6743	6.939577	31.98627
2059	6.72516	3.2326300	58.7966	58.4652	6.939404	31.98618
2060	6.72614	3.2328110	58.5770	58.2469	6.939191	31.98735
2061	6.72707	3.2326860	58.3729	58.0441	6.939136	31.98521
2062	6.72774	3.2327172	58.1566	57.8289	6.939035	31.98502
2063	6.72821	3.2327171	57.9432	57.6168	6.938975	31.98469
2064	6.72883	3.2327420	57.7147	57.3896	6.938883	31.98449
2065	6.72929	3.2326857	57.4983	57.1744	6.938850	31.98355
2066	6.72970	3.2326857	57.2851	56.9625	6.938795	31.98326
2067	6.73037	3.2326231	57.0719	56.7505	6.938741	31.98205
2068	6.73089	3.2325919	56.8708	56.5506	6.938690	31.98132
2069	6.73187	3.2325481	56.6574	56.3384	6.938588	31.98002
2070	6.73275	3.2325417	56.4320	56.1143	6.938480	31.97924
2071	6.73383	3.2324855	56.2307	55.9141	6.938373	31.97771
2072	6.73512	3.2324979	56.0236	55.7083	6.938206	31.97674
2073	6.73667	3.2324042	55.8195	55.5053	6.938061	31.97436
2074	6.73827	3.2323416	55.6092	55.2962	6.937894	31.97229
2075	6.74018	3.2322853	55.3777	55.0661	6.937686	31.97000
2076	6.74246	3.2322228	55.1551	54.8448	6.937438	31.96730
2077	6.74442	3.2321915	54.9478	54.6387	6.937212	31.96522
2078	6.74659	3.2321602	54.7254	54.4176	6.936961	31.96296
2079	6.74870	3.2321289	54.5182	54.2115	6.936716	31.96074
2080	6.75056	3.2320414	54.3020	53.9965	6.936530	31.95816
2081	6.75258	3.2320039	54.0885	53.7844	6.936301	31.95597
2082	6.75485	3.2319413	53.8876	53.5845	6.936053	31.95326
2083	6.75707	3.2317852	53.6772	53.3754	6.935857	31.94958
2084	6.75924	3.2316665	53.4699	53.1693	6.935649	31.94636
2085	6.76177	3.2315727	53.2627	52.9633	6.935385	31.94307
2086	6.76425	3.2314790	53.0615	52.7633	6.935128	31.93983
2087	6.76658	3.2313728	52.8485	52.5515	6.934895	31.93660
2088	6.76906	3.2312603	52.6259	52.3301	6.934646	31.93317
2089	6.77128	3.2312352	52.4095	52.1150	6.934386	31.93093
2090	6.77365	3.2312227	52.1688	51.8756	6.934100	31.92869
2091	6.77577	3.2311976	51.9462	51.6544	6.933852	31.92655
2092	6.77794	3.2311413	51.7363	51.4456	6.933613	31.92401
2093	6.78058	3.2310788	51.5260	51.2365	6.933321	31.92097
2094	6.78378	3.2311224	51.3035	51.0153	6.932908	31.91857
2095	6.78725	3.2311410	51.0779	50.7911	6.932476	31.91566
2096	6.79035	3.2311409	50.8648	50.5792	6.932097	31.91288
2097	6.79391	3.2311408	50.6515	50.3671	6.931662	31.90966
2098	6.79774	3.2311095	50.4503	50.1670	6.931211	31.90585
2099	6.80193	3.2310782	50.2430	49.9609	6.930716	31.90172
2100	6.80725	3.2309844	50.0357	49.7548	6.930115	31.89584
2101	6.81294	3.2308907	49.8316	49.5518	6.929471	31.88962
2102	6.81920	3.2307969	49.6307	49.3521	6.928757	31.88288
2103	6.82443	3.2306719	49.4051	49.1278	6.928184	31.87677
2104	6.83027	3.2305532	49.1885	48.9124	6.927532	31.87014
2105	6.83566	3.2302222	48.9816	48.7068	6.927041	31.86163
2106	6.84099	3.2300286	48.7591	48.4856	6.926489	31.85467
2107	6.84575	3.2299661	48.5456	48.2732	6.925941	31.84968
2108	6.85082	3.2298349	48.3171	48.0460	6.925388	31.84365
2109	6.85636	3.2297161	48.0975	47.8277	6.924774	31.83732
2110	6.86252	3.2297285	47.8693	47.6008	6.924020	31.83185
2111	6.86900	3.2296222	47.6436	47.3764	6.923287	31.82480
2112	6.87475	3.2295035	47.4365	47.1705	6.922648	31.81828
2113	6.88050	3.2294410	47.2322	46.9674	6.921981	31.81237
2114	6.88594	3.2294097	47.0250	46.7613	6.921336	31.80709
2115	6.89070	3.2292847	46.8391	46.5765	6.920819	31.80140
2116	6.89547	3.2290974	46.6319	46.3705	6.920332	31.79504
2117	6.90019	3.2290036	46.4186	46.1584	6.919805	31.78976
2118	6.90433	3.2289161	46.1961	45.9372	6.919344	31.78507
2119	6.90770	3.2289472	45.9890	45.7313	6.918918	31.78239
2120	6.91076	3.2287599	45.7784	45.5219	6.918637	31.77762
2121	6.91330	3.2285476	45.5623	45.3070	6.918431	31.77306
2122	6.91797	3.2283603	45.3398	45.0858	6.917955	31.76681
2123	6.92544	3.2281105	45.1296	44.8768	6.917174	31.75729
2124	6.93482	3.2277734	44.9193	44.6677	6.916204	31.74505
2125	6.94370	3.2274362	44.7092	44.4587	6.915296	31.73329
2126	6.95179	3.2271865	44.4957	44.2464	6.914439	31.72320
2127	6.95984	3.2269742	44.2947	44.0467	6.913570	31.71357
2128	6.96773	3.2267869	44.0905	43.8436	6.912707	31.70436
2129	6.97432	3.2265434	43.8831	43.6374	6.912028	31.69573
2130	6.98014	3.2263249	43.6821	43.4376	6.911430	31.68809
2131	6.98554	3.2262624	43.4721	43.2287	6.910806	31.68254
2132	6.98990	3.2263559	43.2585	43.0163	6.910231	31.67964
2133	6.99421	3.2265117	43.0483	42.8074	6.909632	31.67747
2134	7.00081	3.2263556	42.8349	42.5952	6.908910	31.66980
2135	7.00788	3.2262619	42.6216	42.3831	6.908101	31.66238
2136	7.01422	3.2262618	42.4144	42.1770	6.907334	31.65665
