Scan Count	Temperature [ITS-90, deg C]	Conductivity [S/m]	Pressure, Strain Gauge [db]	Depth [salt water, m]	Oxygen Saturation, Weiss [ml/l]	Salinity, Practical [PSU]
1	11.34955	0.0030020	-0.0201	-0.0200	7.645414	0.02166
2	11.35100	0.0029927	-0.0232	-0.0231	7.645161	0.02160
3	11.35204	0.0029927	-0.0170	-0.0169	7.644977	0.02160
4	11.35321	0.0029742	-0.0231	-0.0230	7.644778	0.02149
5	11.35477	0.0029649	-0.0203	-0.0201	7.644504	0.02144
6	11.35541	0.0029649	-0.0233	-0.0232	7.644391	0.02144
7	11.35646	0.0029556	-0.0232	-0.0231	7.644210	0.02138
8	11.35774	0.0029495	-0.0200	-0.0199	7.643986	0.02135
9	11.35884	0.0029340	-0.0172	-0.0171	7.643796	0.02126
10	11.35983	0.0029217	-0.0203	-0.0201	7.643626	0.02118
11	11.36093	0.0029093	-0.0234	-0.0233	7.643435	0.02111
12	11.36203	0.0028846	-0.0202	-0.0201	7.643247	0.02096
13	11.36308	0.0028692	-0.0231	-0.0230	7.643068	0.02087
14	11.36413	0.0028599	-0.0234	-0.0233	7.642886	0.02082
15	11.36511	0.0028291	-0.0233	-0.0232	7.642721	0.02064
16	11.36633	0.0028229	-0.0204	-0.0203	7.642508	0.02060
17	11.36715	0.0028075	-0.0204	-0.0203	7.642369	0.02051
18	11.36825	0.0027828	-0.0172	-0.0171	7.642181	0.02036
19	11.36912	0.0027704	-0.0234	-0.0232	7.642031	0.02029
20	11.36999	0.0027519	-0.0173	-0.0172	7.641883	0.02018
21	11.37110	0.0027334	-0.0172	-0.0171	7.641694	0.02007
22	11.37226	0.0027210	-0.0235	-0.0233	7.641493	0.02000
23	11.37307	0.0026994	-0.0235	-0.0233	7.641356	0.01987
24	11.37418	0.0026809	-0.0203	-0.0202	7.641166	0.01976
25	11.37528	0.0026716	-0.0173	-0.0172	7.640975	0.01971
26	11.37610	0.0026562	-0.0173	-0.0172	7.640836	0.01962
27	11.37697	0.0026439	-0.0235	-0.0233	7.640686	0.01955
28	11.37772	0.0026315	-0.0265	-0.0263	7.640556	0.01947
29	11.37889	0.0026099	-0.0204	-0.0203	7.640358	0.01935
30	11.37958	0.0026099	-0.0143	-0.0142	7.640235	0.01935
31	11.38051	0.0025852	-0.0173	-0.0172	7.640078	0.01920
32	11.38156	0.0025821	-0.0203	-0.0202	7.639895	0.01919
33	11.38243	0.0025605	-0.0266	-0.0264	7.639747	0.01906
34	11.38319	0.0025574	-0.0265	-0.0263	7.639615	0.01904
35	11.38412	0.0025358	-0.0234	-0.0233	7.639458	0.01891
36	11.38487	0.0025296	-0.0204	-0.0203	7.639326	0.01888
37	11.38598	0.0025204	-0.0235	-0.0233	7.639135	0.01882
38	11.38667	0.0025111	-0.0174	-0.0173	7.639014	0.01877
39	11.38737	0.0025204	-0.0143	-0.0142	7.638889	0.01882
40	11.38807	0.0025451	-0.0142	-0.0141	7.638759	0.01897
41	11.38917	0.0025574	-0.0203	-0.0201	7.638561	0.01904
42	11.38993	0.0025605	-0.0173	-0.0172	7.638428	0.01906
43	11.39069	0.0025574	-0.0204	-0.0203	7.638295	0.01904
44	11.39179	0.0025543	-0.0144	-0.0143	7.638102	0.01902
45	11.39266	0.0025574	-0.0173	-0.0172	7.637948	0.01904
46	11.39342	0.0025451	-0.0173	-0.0172	7.637818	0.01897
47	11.39417	0.0025389	-0.0205	-0.0204	7.637687	0.01893
48	11.39499	0.0025296	-0.0203	-0.0202	7.637546	0.01888
49	11.39592	0.0025204	-0.0204	-0.0203	7.637385	0.01883
50	11.39667	0.0025204	-0.0173	-0.0172	7.637252	0.01883
51	11.39737	0.0025142	-0.0172	-0.0171	7.637131	0.01879
52	11.39784	0.0025019	-0.0204	-0.0203	7.637053	0.01872
53	11.39871	0.0025142	-0.0172	-0.0171	7.636896	0.01879
54	11.39964	0.0025111	-0.0113	-0.0112	7.636733	0.01877
55	11.40016	0.0025050	-0.0173	-0.0172	7.636643	0.01874
56	11.40086	0.0024926	-0.0204	-0.0203	7.636523	0.01866
57	11.40168	0.0024988	-0.0206	-0.0205	7.636379	0.01870
58	11.40272	0.0025111	-0.0234	-0.0232	7.636191	0.01877
59	11.40301	0.0025142	-0.0204	-0.0203	7.636139	0.01879
60	11.40371	0.0025296	-0.0204	-0.0203	7.636012	0.01888
61	11.40441	0.0025296	-0.0173	-0.0172	7.635889	0.01888
62	11.40528	0.0025451	-0.0234	-0.0233	7.635731	0.01897
63	11.40598	0.0025482	-0.0173	-0.0172	7.635608	0.01899
64	11.40644	0.0025451	-0.0205	-0.0204	7.635527	0.01897
65	11.40697	0.0025574	-0.0174	-0.0173	7.635431	0.01904
66	11.40772	0.0025605	-0.0203	-0.0202	7.635298	0.01906
67	11.40860	0.0025574	-0.0142	-0.0141	7.635145	0.01904
68	11.40924	0.0025605	-0.0173	-0.0172	7.635032	0.01906
69	11.40999	0.0025451	-0.0142	-0.0141	7.634903	0.01897
70	11.41081	0.0025451	-0.0142	-0.0141	7.634760	0.01897
71	11.41133	0.0025358	-0.0142	-0.0141	7.634670	0.01892
72	11.41220	0.0025389	-0.0203	-0.0202	7.634516	0.01893
73	11.41279	0.0025296	-0.0173	-0.0172	7.634416	0.01888
74	11.41319	0.0025204	-0.0174	-0.0173	7.634347	0.01883
75	11.41389	0.0025142	-0.0234	-0.0232	7.634226	0.01879
76	11.41459	0.0025111	-0.0233	-0.0232	7.634105	0.01877
77	11.41529	0.0025050	-0.0233	-0.0231	7.633984	0.01874
78	11.41598	0.0024833	-0.0142	-0.0141	7.633867	0.01861
79	11.41645	0.0024988	-0.0173	-0.0172	7.633781	0.01870
80	11.41726	0.0024833	-0.0233	-0.0232	7.633642	0.01861
81	11.41796	0.0024741	-0.0142	-0.0141	7.633522	0.01856
82	11.41843	0.0024648	-0.0203	-0.0201	7.633443	0.01850
83	11.41907	0.0024587	-0.0141	-0.0140	7.633332	0.01847
84	11.41953	0.0024648	-0.0234	-0.0232	7.633248	0.01850
85	11.42017	0.0024494	-0.0172	-0.0171	7.633140	0.01841
86	11.42087	0.0024432	-0.0173	-0.0172	7.633019	0.01838
87	11.42169	0.0024309	-0.0143	-0.0142	7.632879	0.01830
88	11.42233	0.0024340	-0.0204	-0.0203	7.632766	0.01832
89	11.42273	0.0024401	-0.0172	-0.0171	7.632693	0.01836
90	11.42349	0.0024185	-0.0173	-0.0172	7.632566	0.01823
91	11.42384	0.0023969	-0.0203	-0.0201	7.632510	0.01811
92	11.42436	0.0024185	-0.0204	-0.0203	7.632412	0.01823
93	11.42495	0.0024062	-0.0203	-0.0201	7.632314	0.01816
94	11.42593	0.0023938	-0.0172	-0.0171	7.632143	0.01809
95	11.42617	0.0023938	-0.0111	-0.0111	7.632102	0.01809
96	11.42692	0.0023877	-0.0112	-0.0112	7.631971	0.01805
97	11.42739	0.0023877	-0.0172	-0.0171	7.631889	0.01805
98	11.42791	0.0023784	-0.0263	-0.0262	7.631800	0.01800
99	11.42844	0.0023722	-0.0172	-0.0171	7.631710	0.01796
100	11.42902	0.0023691	-0.0142	-0.0141	7.631608	0.01795
101	11.42960	0.0023630	-0.0142	-0.0141	7.631508	0.01791
102	11.43030	0.0023599	-0.0172	-0.0171	7.631386	0.01789
103	11.43094	0.0023537	-0.0203	-0.0202	7.631275	0.01786
104	11.43141	0.0023506	-0.0172	-0.0171	7.631194	0.01784
105	11.43199	0.0023383	-0.0173	-0.0172	7.631095	0.01777
106	11.43245	0.0023321	-0.0232	-0.0231	7.631015	0.01773
107	11.43298	0.0023321	-0.0143	-0.0142	7.630923	0.01773
108	11.43344	0.0023229	-0.0172	-0.0171	7.630844	0.01768
109	11.43420	0.0023321	-0.0141	-0.0140	7.630708	0.01773
110	11.43455	0.0023167	-0.0173	-0.0172	7.630651	0.01764
111	11.43560	0.0023074	-0.0172	-0.0171	7.630470	0.01759
112	11.43577	0.0023167	-0.0142	-0.0141	7.630437	0.01764
113	11.43629	0.0023167	-0.0234	-0.0233	7.630345	0.01764
114	11.43682	0.0023167	-0.0171	-0.0170	7.630253	0.01764
115	11.43723	0.0023229	-0.0174	-0.0173	7.630179	0.01768
116	11.43775	0.0023259	-0.0233	-0.0231	7.630087	0.01770
117	11.43833	0.0023321	-0.0142	-0.0141	7.629983	0.01773
118	11.43880	0.0023321	-0.0172	-0.0171	7.629901	0.01773
119	11.43932	0.0023475	-0.0142	-0.0141	7.629804	0.01782
120	11.43990	0.0023506	-0.0172	-0.0171	7.629701	0.01784
121	11.43996	0.0023383	-0.0203	-0.0201	7.629695	0.01777
122	11.44078	0.0023506	-0.0203	-0.0201	7.629548	0.01784
123	11.44095	0.0023537	-0.0172	-0.0171	7.629516	0.01786
124	11.44182	0.0023691	-0.0141	-0.0140	7.629359	0.01795
125	11.44217	0.0023722	-0.0050	-0.0050	7.629297	0.01797
126	11.44281	0.0023784	-0.0140	-0.0139	7.629182	0.01800
127	11.44328	0.0023784	-0.0172	-0.0171	7.629101	0.01800
128	11.44369	0.0023938	-0.0202	-0.0201	7.629025	0.01809
129	11.44398	0.0023969	-0.0202	-0.0200	7.628973	0.01811
130	11.44462	0.0023877	-0.0172	-0.0171	7.628863	0.01805
131	11.44514	0.0023969	-0.0235	-0.0234	7.628768	0.01811
132	11.44607	0.0024093	-0.0141	-0.0140	7.628601	0.01818
133	11.44619	0.0023877	-0.0233	-0.0232	7.628587	0.01805
134	11.44654	0.0023784	-0.0202	-0.0201	7.628528	0.01800
135	11.44718	0.0023784	-0.0171	-0.0170	7.628416	0.01800
136	11.44771	0.0023722	-0.0172	-0.0171	7.628325	0.01797
137	11.44811	0.0023784	-0.0172	-0.0171	7.628252	0.01800
138	11.44870	0.0023722	-0.0141	-0.0140	7.628152	0.01797
139	11.44899	0.0023691	-0.0202	-0.0200	7.628101	0.01795
140	11.44538	0.8643592	0.0622	0.0618	7.316188	6.67443
141	11.42431	2.5879739	0.2053	0.2042	6.649263	21.95767
142	11.41127	2.6824768	0.3456	0.3437	6.614045	22.84812
143	11.37714	2.7567736	0.4979	0.4952	6.589176	23.56664
144	11.32598	2.7821667	0.6503	0.6467	6.585318	23.83847
145	11.28879	2.7996793	0.8058	0.8014	6.582857	24.02776
146	11.24296	2.8112467	0.9247	0.9196	6.583723	24.16696
147	11.18966	2.7529533	0.9734	0.9680	6.612930	23.65014
148	11.14187	2.7631424	0.9855	0.9800	6.614602	23.77722
149	11.13211	2.7657154	0.9855	0.9801	6.614748	23.80788
150	11.13280	2.7659039	0.9918	0.9863	6.614592	23.80922
151	11.11924	2.7724493	0.9886	0.9832	6.613621	23.88000
152	11.09627	2.7783162	0.9917	0.9863	6.614031	23.95052
153	11.05269	2.7852032	0.9917	0.9862	6.616483	24.04428
154	11.00289	2.7891839	0.9856	0.9802	6.620822	24.11470
155	10.96309	2.7921147	0.9887	0.9832	6.624388	24.16871
156	10.93316	2.7921681	0.9886	0.9832	6.627928	24.18890
157	10.91117	2.7935276	0.9917	0.9863	6.630004	24.21634
158	10.89647	2.8024872	0.9886	0.9832	6.628175	24.31156
159	10.87445	2.8454376	0.9917	0.9863	6.613627	24.73696
160	10.83376	2.9027707	0.9916	0.9862	6.595483	25.31469
161	10.80925	2.9296443	0.9917	0.9863	6.587586	25.59023
162	10.81600	2.9302277	0.9947	0.9892	6.586565	25.59114
163	10.83244	2.9278035	0.9887	0.9832	6.585621	25.55635
164	10.84716	2.9253320	0.9886	0.9831	6.584894	25.52233
165	10.85880	2.9238710	0.9948	0.9893	6.584123	25.50019
166	10.87565	2.9212565	0.9857	0.9803	6.583203	25.46337
167	10.89188	2.9183484	0.9887	0.9832	6.582472	25.42419
168	10.90703	2.9165464	0.9917	0.9862	6.581426	25.39641
169	10.92276	2.9130519	0.9947	0.9892	6.580986	25.35202
170	10.94235	2.9078190	0.9948	0.9893	6.580786	25.28836
171	10.95907	2.9045802	0.9918	0.9863	6.580125	25.24583
172	10.97643	2.9033689	0.9888	0.9833	6.578582	25.22232
173	10.99299	2.9021278	0.9948	0.9893	6.577144	25.19909
174	11.00530	2.9010008	0.9948	0.9893	6.576157	25.17988
175	11.01589	2.8986456	0.9949	0.9894	6.575856	25.15012
176	11.02424	2.8936500	0.9979	0.9924	6.576863	25.09667
177	11.02885	2.8898546	0.9979	0.9924	6.577830	25.05726
178	11.03155	2.8899683	0.9979	0.9924	6.577469	25.05651
179	11.02781	2.8911774	0.9949	0.9895	6.577426	25.07061
180	11.02384	2.8924465	0.9979	0.9924	6.577387	25.08544
181	11.02292	2.8930213	0.9978	0.9923	6.577267	25.09156
182	11.02309	2.8936500	0.9980	0.9925	6.576997	25.09745
183	11.02159	2.8944105	0.9979	0.9924	6.576871	25.10574
184	11.01969	2.8952070	0.9979	0.9924	6.576777	25.11465
185	11.01917	2.8956383	0.9980	0.9925	6.576666	25.11913
186	11.01808	2.8945183	0.9949	0.9895	6.577237	25.10917
187	11.01031	2.8936262	0.9919	0.9864	6.578497	25.10594
188	11.00254	2.8939676	0.9979	0.9924	6.579268	25.11450
189	10.99984	2.8961296	0.9918	0.9864	6.578726	25.13703
190	11.00041	2.8976332	1.0040	0.9984	6.578063	25.15101
191	11.00133	2.8989513	0.9949	0.9894	6.577432	25.16300
192	11.00127	2.8997902	1.0009	0.9954	6.577106	25.17106
193	11.00018	2.8981724	0.9979	0.9924	6.577876	25.15633
194	10.99800	2.8973936	0.9979	0.9924	6.578440	25.15037
195	10.99328	2.8983162	0.9979	0.9924	6.578624	25.16243
196	10.98275	2.8999941	0.9979	0.9924	6.579185	25.18568
197	10.97436	2.9017023	0.9980	0.9925	6.579486	25.20778
198	10.97349	2.9022418	1.0040	0.9985	6.579372	25.21354
199	10.97482	2.9019541	0.9979	0.9924	6.579332	25.20988
200	10.97528	2.9031411	1.0008	0.9953	6.578807	25.22093
201	10.97436	2.9040644	1.0039	0.9983	6.578547	25.23040
202	10.97418	2.9043222	1.0040	0.9984	6.578465	25.23298
203	10.97505	2.9060852	1.0011	0.9956	6.577664	25.24928
204	10.97614	2.9040943	1.0041	0.9986	6.578328	25.22946
205	10.97545	2.9018702	1.0040	0.9985	6.579292	25.20864
206	10.97286	2.9051917	1.0040	0.9984	6.578274	25.24222
207	10.96964	2.9081127	1.0009	0.9954	6.577488	25.27240
208	10.96729	2.9085147	1.0009	0.9954	6.577603	25.27787
209	10.96723	2.9075908	1.0071	1.0016	6.577977	25.26906
210	10.96907	2.9078787	1.0010	0.9955	6.577648	25.27056
211	10.97171	2.9104286	1.0040	0.9985	6.576327	25.29316
212	10.97361	2.9109507	1.0011	0.9956	6.575899	25.29686
213	10.97338	2.9098766	0.9980	0.9925	6.576353	25.28673
214	10.97252	2.9075068	0.9978	0.9923	6.577394	25.26463
215	10.97315	2.9065771	0.9979	0.9924	6.577690	25.25529
216	10.97516	2.9073028	0.9979	0.9924	6.577167	25.26086
217	10.97660	2.9087486	0.9950	0.9895	6.576426	25.27372
218	10.97694	2.9093545	1.0041	0.9986	6.576145	25.27928
219	10.97637	2.9081666	1.0072	1.0016	6.576684	25.26830
220	10.97602	2.9065531	0.9979	0.9924	6.577365	25.25309
221	10.97712	2.9060013	0.9979	0.9924	6.577456	25.24705
222	10.97855	2.9061752	0.9980	0.9925	6.577220	25.24773
223	10.97965	2.9085445	0.9949	0.9895	6.576152	25.26967
224	10.97988	2.9090065	1.0010	0.9955	6.575942	25.27393
225	10.97930	2.9075307	1.0012	0.9957	6.576595	25.26020
226	10.97942	2.9059773	1.0012	0.9957	6.577198	25.24524
227	10.98068	2.9044361	1.0043	0.9988	6.577663	25.22962
228	10.98201	2.9046099	1.0102	1.0046	6.577440	25.23037
229	10.98287	2.9068349	0.9980	0.9925	6.576456	25.25109
230	10.98270	2.9080526	1.0010	0.9955	6.575992	25.26286
231	10.98183	2.9055634	1.0042	0.9987	6.577081	25.23962
232	10.98178	2.9020859	1.0102	1.0047	6.578469	25.20637
233	10.98247	2.9004556	1.0041	0.9986	6.579035	25.19029
234	10.98304	2.9019540	1.0011	0.9956	6.578373	25.20424
235	10.98321	2.9035726	1.0042	0.9987	6.577711	25.21962
236	10.98344	2.9039204	1.0010	0.9955	6.577546	25.22279
237	10.98408	2.9027933	1.0041	0.9986	6.577919	25.21157
238	10.98540	2.9011328	0.9980	0.9925	6.578424	25.19477
239	10.98707	2.9002518	1.0011	0.9956	6.578580	25.18520
240	10.98827	2.9002218	0.9980	0.9925	6.578451	25.18408
241	10.98948	2.9007132	1.0073	1.0017	6.578115	25.18796
242	10.99086	2.9025294	1.0040	0.9985	6.577233	25.20439
243	10.99207	2.9025294	0.9980	0.9925	6.577092	25.20357
244	10.99322	2.9011028	0.9980	0.9925	6.577524	25.18913
245	10.99443	2.9006233	0.9981	0.9926	6.577574	25.18371
246	10.99564	2.9023855	1.0010	0.9955	6.576734	25.19975
247	10.99661	2.9039442	1.0042	0.9987	6.576002	25.21399
248	10.99725	2.9029910	1.0011	0.9956	6.576306	25.20444
249	10.99823	2.9008270	1.0074	1.0018	6.577051	25.18306
250	10.99938	2.9001079	1.0041	0.9985	6.577202	25.17539
251	11.00030	2.9006113	1.0042	0.9987	6.576895	25.17958
252	11.00151	2.9015762	0.9950	0.9896	6.576371	25.18799
253	11.00260	2.9027331	1.0011	0.9956	6.575785	25.19830
254	11.00363	2.9036024	1.0073	1.0017	6.575320	25.20591
255	11.00450	2.9023554	1.0042	0.9987	6.575713	25.19339
256	11.00565	2.9005992	1.0012	0.9957	6.576276	25.17580
257	11.00703	2.8997902	1.0042	0.9987	6.576436	25.16712
258	11.00835	2.9000179	1.0011	0.9956	6.576191	25.16839
259	11.00922	2.9018099	1.0012	0.9957	6.575380	25.18494
260	11.00956	2.9020976	1.0044	0.9989	6.575226	25.18746
261	11.01019	2.9007430	1.0074	1.0019	6.575689	25.17407
262	11.01140	2.9001077	1.0012	0.9957	6.575800	25.16717
263	11.01301	2.9004194	0.9952	0.9897	6.575489	25.16905
264	11.01428	2.9007969	1.0013	0.9958	6.575192	25.17179
265	11.01532	2.9006531	1.0012	0.9957	6.575128	25.16971
266	11.01658	2.9005092	1.0073	1.0017	6.575037	25.16746
267	11.01802	2.9006830	0.9981	0.9926	6.574801	25.16815
268	11.01935	2.9008568	1.0043	0.9988	6.574578	25.16890
269	11.02061	2.9008868	1.0043	0.9988	6.574418	25.16832
270	11.02176	2.9010186	0.9982	0.9928	6.574232	25.16880
271	11.02286	2.9010905	1.0012	0.9957	6.574076	25.16873
272	11.02395	2.9008268	1.0013	0.9958	6.574053	25.16547
273	11.02499	2.9005990	1.0073	1.0018	6.574023	25.16258
274	11.02597	2.9003353	1.0044	0.9989	6.574013	25.15939
275	11.02683	2.9006530	1.0043	0.9988	6.573787	25.16184
276	11.02741	2.9020615	1.0075	1.0019	6.573162	25.17491
277	11.02746	2.9014921	1.0043	0.9988	6.573381	25.16942
278	11.02775	2.9007968	1.0042	0.9987	6.573623	25.16258
279	11.02856	2.9004552	1.0043	0.9988	6.573664	25.15876
280	11.02948	2.9003952	1.0074	1.0019	6.573580	25.15756
281	11.03046	2.9006230	0.9982	0.9928	6.573376	25.15907
282	11.03126	2.9010305	0.9982	0.9928	6.573121	25.16242
283	11.03184	2.9012942	0.9983	0.9928	6.572949	25.16454
284	11.03242	2.9011444	1.0044	0.9989	6.572942	25.16272
285	11.03293	2.9008866	1.0013	0.9958	6.572983	25.15990
286	11.03403	2.9007728	1.0014	0.9959	6.572901	25.15806
287	11.03489	2.9008567	0.9981	0.9926	6.572767	25.15828
288	11.03581	2.9009166	1.0044	0.9989	6.572636	25.15822
289	11.03656	2.9009106	1.0106	1.0050	6.572552	25.15765
290	11.03725	2.9009405	1.0013	0.9958	6.572459	25.15746
291	11.03806	2.9009405	1.0044	0.9989	6.572365	25.15691
292	11.03887	2.9009705	1.0074	1.0018	6.572260	25.15665
293	11.03944	2.9010005	1.0044	0.9989	6.572181	25.15654
294	11.04036	2.9010304	1.0074	1.0018	6.572062	25.15620
295	11.04105	2.9010184	1.0043	0.9988	6.571986	25.15561
296	11.04186	2.9010304	1.0105	1.0050	6.571887	25.15517
297	11.04278	2.9010004	1.0015	0.9960	6.571792	25.15426
298	11.04365	2.9007427	1.0044	0.9989	6.571793	25.15120
299	11.04405	2.9008566	1.0044	0.9989	6.571701	25.15202
300	11.04405	2.9007727	1.0044	0.9989	6.571734	25.15122
301	11.04422	2.9008865	1.0045	0.9990	6.571669	25.15219
302	11.04497	2.9010783	1.0045	0.9990	6.571506	25.15351
303	11.04595	2.9007427	1.0075	1.0019	6.571525	25.14963
304	11.04653	2.9003351	0.9985	0.9930	6.571619	25.14535
305	11.04699	2.9002213	1.0014	0.9959	6.571611	25.14394
306	11.04739	2.9002213	1.0014	0.9959	6.571564	25.14367
307	11.04802	2.9001913	1.0016	0.9961	6.571502	25.14295
308	11.04866	2.9002033	1.0016	0.9961	6.571423	25.14263
309	11.04929	2.9004250	1.0046	0.9991	6.571262	25.14431
310	11.04998	2.9006827	1.0014	0.9959	6.571079	25.14631
311	11.05079	2.9003651	1.0015	0.9960	6.571111	25.14272
312	11.05148	2.9000474	1.0014	0.9959	6.571156	25.13921
313	11.05165	2.9000175	1.0015	0.9960	6.571148	25.13881
314	11.05211	2.9002212	1.0016	0.9961	6.571014	25.14044
315	11.05298	2.9003890	1.0046	0.9991	6.570847	25.14145
316	11.05379	2.9002212	1.0015	0.9960	6.570819	25.13930
317	11.05511	2.9002512	1.0045	0.9990	6.570653	25.13868
318	11.05644	2.9002811	1.0015	0.9960	6.570487	25.13806
319	11.05793	2.8999934	1.0045	0.9990	6.570426	25.13429
320	11.05972	2.8997897	1.0045	0.9990	6.570299	25.13113
321	11.06214	2.8999275	0.9985	0.9930	6.569963	25.13080
322	11.06439	2.9000773	1.0016	0.9960	6.569642	25.13069
323	11.06623	2.8999934	1.0077	1.0022	6.569461	25.12863
324	11.06785	2.8998495	1.0047	0.9991	6.569330	25.12616
325	11.06958	2.8997296	1.0076	1.0021	6.569176	25.12383
326	11.07119	2.8995559	1.0047	0.9991	6.569057	25.12107
327	11.07286	2.8995319	1.0046	0.9991	6.568872	25.11971
328	11.07465	2.8995738	1.0016	0.9961	6.568647	25.11889
329	11.07615	2.8997595	1.0016	0.9961	6.568399	25.11964
330	11.07690	2.8994719	0.9986	0.9931	6.568426	25.11638
331	11.07770	2.8996157	0.9986	0.9931	6.568275	25.11721
332	11.07874	2.8996756	0.9986	0.9931	6.568131	25.11707
333	11.07978	2.8995558	1.0016	0.9961	6.568057	25.11522
334	11.08059	2.8995977	1.0048	0.9992	6.567947	25.11507
335	11.08105	2.8997595	1.0017	0.9962	6.567829	25.11630
336	11.08174	2.8997295	0.9956	0.9901	6.567761	25.11554
337	11.08220	2.9000471	1.0047	0.9992	6.567582	25.11826
338	11.08209	2.8996456	1.0018	0.9963	6.567754	25.11450
339	11.08226	2.8992142	1.0017	0.9962	6.567904	25.11027
340	11.08243	2.8996756	1.0016	0.9960	6.567701	25.11455
341	11.08307	2.8997055	1.0017	0.9962	6.567616	25.11441
342	11.08364	2.8999333	1.0017	0.9962	6.567459	25.11619
343	11.08416	2.8997894	1.0048	0.9993	6.567455	25.11446
344	11.08457	2.8997894	1.0017	0.9962	6.567408	25.11419
345	11.08503	2.9000471	1.0078	1.0023	6.567253	25.11633
346	11.08537	2.8998194	1.0079	1.0024	6.567303	25.11392
347	11.08601	2.8993520	1.0048	0.9993	6.567413	25.10903
348	11.08641	2.8999033	1.0110	1.0054	6.567149	25.11401
349	11.08670	2.8998194	1.0019	0.9964	6.567148	25.11302
350	11.08699	2.8997894	1.0049	0.9993	6.567127	25.11254
351	11.08745	2.8998733	1.0049	0.9993	6.567040	25.11302
352	11.08814	2.8997295	1.0050	0.9995	6.567016	25.11118
353	11.08860	2.8996156	1.0018	0.9963	6.567007	25.10978
354	11.08901	2.8995976	1.0049	0.9994	6.566968	25.10933
355	11.08947	2.8994718	0.9957	0.9903	6.566964	25.10782
356	11.08993	2.8993579	1.0049	0.9993	6.566955	25.10641
357	11.09016	2.8994119	1.0049	0.9993	6.566907	25.10677
358	11.09062	2.8994718	1.0080	1.0025	6.566830	25.10703
359	11.09108	2.8995017	1.0080	1.0024	6.566764	25.10700
360	11.09154	2.8997055	1.0049	0.9994	6.566630	25.10863
361	11.09224	2.8998193	1.0019	0.9964	6.566504	25.10925
362	11.09275	2.8994718	1.0017	0.9962	6.566581	25.10558
363	11.09327	2.8988965	1.0080	1.0025	6.566748	25.09973
364	11.09345	2.8988965	1.0019	0.9964	6.566728	25.09962
365	11.09374	2.8989804	1.0019	0.9964	6.566661	25.10022
366	11.09402	2.8993279	1.0080	1.0024	6.566491	25.10334
367	11.09454	2.8997893	1.0111	1.0056	6.566248	25.10739
368	11.09518	2.9001369	1.0050	0.9995	6.566037	25.11027
369	11.09587	2.8994717	1.0049	0.9994	6.566219	25.10345
370	11.09645	2.8984591	1.0050	0.9995	6.566552	25.09340
371	11.09662	2.8989804	1.0020	0.9965	6.566326	25.09826
372	11.09645	2.8990942	1.0111	1.0056	6.566301	25.09946
373	11.09662	2.8992680	0.9988	0.9933	6.566212	25.10100
374	11.09714	2.9001609	1.0080	1.0025	6.565800	25.10916
375	11.09777	2.8999931	1.0051	0.9996	6.565792	25.10713
376	11.09783	2.8991242	1.0081	1.0025	6.566128	25.09880
377	11.09829	2.8983153	0.9989	0.9934	6.566394	25.09077
378	11.09841	2.8979138	1.0020	0.9965	6.566539	25.08686
379	11.09875	2.8978839	1.0020	0.9965	6.566510	25.08634
380	11.09904	2.8983991	1.0021	0.9966	6.566273	25.09106
381	11.09962	2.8996754	1.0050	0.9995	6.565703	25.10284
382	11.10025	2.9004545	0.9990	0.9935	6.565321	25.10985
383	11.10072	2.8998732	1.0051	0.9996	6.565497	25.10398
384	11.10106	2.8984351	1.0050	0.9995	6.566025	25.09003
385	11.10129	2.8973387	1.0021	0.9966	6.566430	25.07941
386	11.10170	2.8971650	1.0020	0.9965	6.566452	25.07748
387	11.10250	2.8979138	1.0021	0.9966	6.566062	25.08408
388	11.10354	2.8990103	1.0052	0.9997	6.565509	25.09383
389	11.10452	2.8999930	1.0052	0.9997	6.565007	25.10253
390	11.10527	2.8999331	1.0113	1.0057	6.564944	25.10145
391	11.10573	2.8983751	1.0051	0.9996	6.565505	25.08628
392	11.10700	2.8966198	1.0022	0.9967	6.566050	25.06867
393	11.10937	2.8963742	1.0052	0.9997	6.565871	25.06472
394	11.11399	2.8968773	1.0051	0.9996	6.565136	25.06638
395	11.11843	2.8982911	1.0083	1.0027	6.564062	25.07684
396	11.12016	2.9001367	1.0021	0.9966	6.563133	25.09326
397	11.12033	2.9000468	1.0113	1.0058	6.563148	25.09228
398	11.12051	2.8982012	1.0052	0.9997	6.563856	25.07457
399	11.12218	2.8964759	1.0052	0.9997	6.564341	25.05698
400	11.12541	2.8957211	1.0054	0.9998	6.564263	25.04759
401	11.12853	2.8959547	0.9991	0.9937	6.563808	25.04770
402	11.13130	2.8971647	1.0083	1.0027	6.563010	25.05735
403	11.13240	2.8987224	1.0051	0.9996	6.562268	25.07145
404	11.13240	2.8992676	1.0022	0.9967	6.562053	25.07665
405	11.13188	2.8982011	1.0085	1.0029	6.562534	25.06684
406	11.13211	2.8969071	1.0022	0.9967	6.563017	25.05435
407	11.13350	2.8959127	1.0054	0.9999	6.563248	25.04393
408	11.13586	2.8954934	1.0052	0.9997	6.563138	25.03833
409	11.13875	2.8963020	1.0053	0.9998	6.562484	25.04407
410	11.14083	2.8982909	1.0053	0.9998	6.561459	25.06161
411	11.14112	2.9001065	1.0084	1.0029	6.560710	25.07871
412	11.14066	2.8992975	1.0022	0.9967	6.561082	25.07132
413	11.14020	2.8970328	1.0053	0.9998	6.562028	25.05005
414	11.14152	2.8956371	1.0024	0.9969	6.562423	25.03585
415	11.14383	2.8956371	1.0083	1.0028	6.562155	25.03428
416	11.14638	2.8964756	1.0054	0.9998	6.561529	25.04055
417	11.14782	2.8972783	1.0085	1.0029	6.561045	25.04722
418	11.14840	2.8982309	1.0054	0.9998	6.560603	25.05590
419	11.14840	2.8992136	1.0085	1.0029	6.560217	25.06526
420	11.14793	2.8990518	1.0086	1.0030	6.560334	25.06403
421	11.14724	2.8971945	1.0025	0.9970	6.561146	25.04681
422	11.14782	2.8953795	1.0024	0.9968	6.561793	25.02913
423	11.15088	2.8956969	1.0054	0.9999	6.561312	25.03007
424	11.15429	2.8980871	1.0024	0.9969	6.559976	25.05053
425	11.15568	2.8999026	1.0054	0.9999	6.559100	25.06688
426	11.15521	2.8990098	1.0085	1.0029	6.559505	25.05869
427	11.15544	2.8966493	1.0024	0.9969	6.560407	25.03605
428	11.15833	2.8950920	1.0055	0.9999	6.560684	25.01926
429	11.16388	2.8950919	1.0085	1.0030	6.560040	25.01549
430	11.16937	2.8963017	1.0085	1.0030	6.558926	25.02329
431	11.17249	2.8977993	1.0087	1.0031	6.557975	25.03543
432	11.17261	2.8983745	1.0056	1.0000	6.557736	25.04083
433	11.17162	2.8977694	1.0056	1.0001	6.558088	25.03574
434	11.17151	2.8967869	1.0087	1.0031	6.558487	25.02646
435	11.17284	2.8963017	1.0116	1.0060	6.558524	25.02094
436	11.17527	2.8964454	0.9994	0.9939	6.558185	25.02067
437	11.17746	2.8964993	0.9995	0.9940	6.557909	25.01969
438	11.17914	2.8960680	1.0026	0.9971	6.557884	25.01445
439	11.18064	2.8961279	1.0086	1.0031	6.557686	25.01400
440	11.18220	2.8969306	1.0087	1.0031	6.557189	25.02058
441	11.18255	2.8974937	1.0117	1.0062	6.556928	25.02570
442	11.18238	2.8968766	1.0055	1.0000	6.557190	25.01995
443	11.18220	2.8963016	1.0057	1.0001	6.557436	25.01459
444	11.18261	2.8962716	1.0027	0.9972	6.557401	25.01403
445	11.18330	2.8960380	1.0056	1.0000	6.557412	25.01134
446	11.18382	2.8957206	1.0087	1.0032	6.557477	25.00796
447	11.18463	2.8957805	1.0027	0.9972	6.557359	25.00799
448	11.18498	2.8965651	1.0118	1.0063	6.557011	25.01522
449	11.18504	2.8974218	1.0056	1.0000	6.556667	25.02333
450	11.18417	2.8969605	1.0027	0.9972	6.556949	25.01953
451	11.18342	2.8959542	1.0026	0.9971	6.557432	25.01046
452	11.18313	2.8951756	1.0057	1.0001	6.557771	25.00325
453	11.18348	2.8951456	1.0088	1.0032	6.557743	25.00273
454	11.18388	2.8956128	1.0057	1.0002	6.557512	25.00690
455	11.18400	2.8964993	1.0089	1.0033	6.557151	25.01526
456	11.18353	2.8971642	1.0088	1.0032	6.556943	25.02190
457	11.18267	2.8969306	1.0057	1.0001	6.557135	25.02026
458	11.18168	2.8958104	1.0027	0.9972	6.557690	25.01027
459	11.18145	2.8948582	1.0057	1.0002	6.558091	25.00136
460	11.18145	2.8951756	1.0118	1.0063	6.557966	25.00438
461	11.18174	2.8963495	1.0088	1.0033	6.557471	25.01536
462	11.18145	2.8974218	1.0057	1.0002	6.557083	25.02576
463	11.18076	2.8976555	1.0058	1.0003	6.557072	25.02846
464	11.17995	2.8966431	1.0027	0.9972	6.557564	25.01937
465	11.17914	2.8944869	1.0089	1.0034	6.558505	24.99940
466	11.17943	2.8935647	1.0058	1.0003	6.558834	24.99043
467	11.18064	2.8945707	1.0058	1.0003	6.558298	24.99918
468	11.18174	2.8972780	1.0089	1.0034	6.557106	25.02420
469	11.18145	2.8986081	1.0089	1.0034	6.556617	25.03705
470	11.18012	2.8974817	1.0028	0.9973	6.557214	25.02724
471	11.17914	2.8956068	1.0059	1.0004	6.558065	25.01006
472	11.17931	2.8940258	1.0059	1.0004	6.558666	24.99489
473	11.18076	2.8935946	1.0028	0.9973	6.558668	24.98981
474	11.18255	2.8947743	1.0029	0.9974	6.557996	24.99982
475	11.18371	2.8975775	1.0058	1.0003	6.556760	25.02572
476	11.18359	2.8990395	1.0150	1.0095	6.556200	25.03971
477	11.18243	2.8975117	1.0089	1.0034	6.556934	25.02595
478	11.18168	2.8948282	1.0028	0.9973	6.558076	25.00092
479	11.18255	2.8936785	1.0060	1.0005	6.558427	24.98939
480	11.18423	2.8943970	1.0029	0.9974	6.557950	24.99510
481	11.18561	2.8960979	1.0060	1.0005	6.557120	25.01034
482	11.18608	2.8975476	1.0029	0.9974	6.556497	25.02383
483	11.18556	2.8980269	1.0091	1.0036	6.556369	25.02874
484	11.18475	2.8970204	1.0030	0.9975	6.556859	25.01971
485	11.18440	2.8956068	1.0059	1.0004	6.557454	25.00649
486	11.18469	2.8949719	0.9999	0.9944	6.557670	25.00026
487	11.18567	2.8955229	1.0028	0.9973	6.557340	25.00483
488	11.18625	2.8963016	1.0028	0.9973	6.556966	25.01185
489	11.18671	2.8959661	0.9969	0.9914	6.557044	25.00835
490	11.18694	2.8950018	1.0031	0.9975	6.557397	24.99901
491	11.18752	2.8951216	0.9970	0.9915	6.557282	24.99976
492	11.18827	2.8961278	1.0029	0.9974	6.556800	25.00883
493	11.18862	2.8963255	1.0000	0.9945	6.556682	25.01047
494	11.18879	2.8959841	1.0061	1.0005	6.556796	25.00710
495	11.18897	2.8964453	1.0029	0.9974	6.556595	25.01138
496	11.18932	2.8971641	1.0061	1.0006	6.556272	25.01798
497	11.18932	2.8964453	1.0091	1.0036	6.556554	25.01114
498	11.18943	2.8809346	1.0244	1.0188	6.562635	24.86352
499	11.19331	2.8775278	1.1280	1.1218	6.563523	24.82849
500	11.18978	2.9031631	1.2713	1.2643	6.553866	25.07467
501	11.16007	2.9264054	1.4480	1.4400	6.548172	25.31633
502	11.12207	2.9413564	1.6279	1.6190	6.546677	25.48514
503	11.07961	2.9573863	1.8167	1.8067	6.545252	25.66781
504	11.02263	2.9782836	1.9936	1.9826	6.543547	25.90791
505	10.92586	3.0155596	2.1856	2.1735	6.539855	26.33503
506	10.80742	3.0358303	2.3990	2.3858	6.545318	26.61614
507	10.70618	3.0427050	2.6062	2.5919	6.554144	26.75642
508	10.61950	3.0576199	2.8227	2.8071	6.558054	26.96499
509	10.52547	3.0712519	3.0329	3.0163	6.563294	27.16754
510	10.42679	3.0851461	3.2432	3.2253	6.568929	27.37721
511	10.32634	3.1046081	3.4932	3.4739	6.572457	27.64413
512	10.22299	3.1196926	3.7338	3.7133	6.578064	27.87162
513	10.14736	3.1238831	3.9869	3.9650	6.584976	27.97112
514	10.10317	3.1264909	4.2674	4.2439	6.588952	28.03097
515	10.07616	3.1317576	4.4959	4.4711	6.589860	28.10402
516	10.05297	3.1389167	4.7428	4.7166	6.589540	28.19298
517	10.03294	3.1535934	4.9928	4.9653	6.585730	28.35433
518	10.01416	3.1654341	5.2365	5.2077	6.582949	28.48675
519	9.99051	3.1758528	5.4774	5.4473	6.581304	28.60906
520	9.93687	3.1857945	5.7395	5.7079	6.583251	28.75064
521	9.84317	3.1899255	5.9985	5.9655	6.592168	28.86658
522	9.71279	3.1915112	6.2606	6.2261	6.606341	28.98700
523	9.58379	3.1929107	6.5075	6.4717	6.620471	29.10516
524	9.47181	3.1925516	6.7636	6.7263	6.633442	29.19236
525	9.36097	3.1922483	7.0347	6.9960	6.646292	29.27960
526	9.25853	3.1938590	7.3031	7.2628	6.657381	29.37986
527	9.17714	3.1961474	7.5621	7.5204	6.665768	29.47012
528	9.12352	3.1983739	7.8182	7.7751	6.670987	29.53709
529	9.05242	3.1995625	8.0710	8.0265	6.678680	29.60814
530	8.96606	3.2006022	8.3209	8.2750	6.688214	29.69064
531	8.86236	3.2014245	8.5770	8.5297	6.699871	29.78576
532	8.76436	3.2017304	8.8392	8.7904	6.711118	29.87119
533	8.68323	3.2025587	9.0982	9.0480	6.720192	29.94814
534	8.61503	3.2026031	9.3542	9.3026	6.728124	30.00627
535	8.55910	3.2034126	9.6194	9.5664	6.734292	30.06209
536	8.51489	3.2043029	9.8754	9.8209	6.739059	30.10889
537	8.47639	3.2046394	10.1314	10.0755	6.743411	30.14514
538	8.43917	3.2047581	10.3844	10.3271	6.747717	30.17810
539	8.40408	3.2045781	10.6465	10.5877	6.751911	30.20617
540	8.37402	3.2045785	10.9146	10.8544	6.755437	30.23184
541	8.35075	3.2044855	11.1769	11.1152	6.758212	30.25074
542	8.32836	3.2046725	11.4390	11.3758	6.760759	30.27183
543	8.30539	3.2048533	11.6857	11.6212	6.763377	30.29338
544	8.28436	3.2050092	11.9356	11.8697	6.765780	30.31302
545	8.26398	3.2049161	12.2009	12.1335	6.768221	30.32950
546	8.23805	3.2050596	12.4599	12.3911	6.771208	30.35328
547	8.20731	3.2046742	12.7281	12.6578	6.775004	30.37569
548	8.17258	3.2045501	12.9781	12.9064	6.779152	30.40433
549	8.13693	3.2042146	13.2492	13.1760	6.783511	30.43159
550	8.10477	3.2037545	13.5114	13.4367	6.787518	30.45454
551	8.07776	3.2034811	13.7765	13.7003	6.790835	30.47502
552	8.05520	3.2033569	14.0265	13.9489	6.793561	30.49323
553	8.03484	3.2027786	14.2946	14.2156	6.796238	30.50475
554	8.01661	3.2028100	14.5568	14.4763	6.798382	30.52084
555	8.00111	3.2022627	14.8280	14.7460	6.800473	30.52846
556	7.99116	3.2022940	15.0839	15.0005	6.801641	30.53737
557	7.98392	3.2021386	15.3552	15.2703	6.802574	30.54192
558	7.97838	3.2021948	15.6235	15.5371	6.803208	30.54723
559	7.96912	3.2019274	15.8947	15.8068	6.804433	30.55237
560	7.95598	3.2018965	16.1566	16.0672	6.806008	30.56341
561	7.94268	3.2023260	16.4189	16.3281	6.807388	30.57946
562	7.92647	3.2020774	16.6933	16.6009	6.809429	30.59089
563	7.90840	3.2018040	16.9615	16.8676	6.811702	30.60369
564	7.88991	3.2012568	17.2357	17.1403	6.814153	30.61397
565	7.87218	3.2010145	17.5130	17.4160	6.816374	30.62683
566	7.85435	3.2008593	17.7873	17.6888	6.818568	30.64070
567	7.83196	3.2002811	18.0768	17.9767	6.821500	30.65409
568	7.80344	3.2007418	18.3421	18.2406	6.824678	30.68392
569	7.77902	3.2006177	18.6133	18.5102	6.827644	30.70397
570	7.76192	3.2006180	18.8784	18.7738	6.829683	30.71892
571	7.75096	3.2004005	19.1587	19.0526	6.831093	30.72614
572	7.74249	3.2004006	19.4270	19.3194	6.832106	30.73348
573	7.73588	3.2002515	19.7045	19.5953	6.832968	30.73761
574	7.73170	3.2000961	19.9665	19.8558	6.833544	30.73952
575	7.72779	3.2001274	20.2377	20.1255	6.834000	30.74319
576	7.72160	3.1999471	20.4999	20.3863	6.834827	30.74661
577	7.71266	3.1996426	20.7710	20.6559	6.836039	30.75114
578	7.69987	3.1993691	21.0362	20.9196	6.837697	30.75941
579	7.68338	3.1990709	21.3045	21.1864	6.839807	30.77068
580	7.66326	3.1988162	21.5756	21.4560	6.842331	30.78563
581	7.64341	3.1987543	21.8470	21.7258	6.844733	30.80241
582	7.62578	3.1984809	22.1090	21.9864	6.846970	30.81499
583	7.61164	3.1983008	22.3864	22.2622	6.848748	30.82547
584	7.60009	3.1980896	22.6454	22.5198	6.850232	30.83333
585	7.58992	3.1979032	22.9227	22.7956	6.851541	30.84024
586	7.58128	3.1979967	23.1818	23.0531	6.852535	30.84879
587	7.57390	3.1977854	23.4623	23.3321	6.853522	30.85296
588	7.56557	3.1977234	23.7335	23.6017	6.854552	30.85957
589	7.55825	3.1976925	23.9986	23.8654	6.855447	30.86562
590	7.55209	3.1975372	24.2699	24.1351	6.856263	30.86931
591	7.54645	3.1974192	24.5411	24.4049	6.856998	30.87293
592	7.53987	3.1972328	24.7971	24.6594	6.857878	30.87668
593	7.53192	3.1970527	25.0684	24.9292	6.858920	30.88169
594	7.52398	3.1967482	25.3427	25.2019	6.860021	30.88538
595	7.51724	3.1967172	25.6017	25.4594	6.860847	30.89092
596	7.51187	3.1964127	25.8790	25.7352	6.861639	30.89232
597	7.50682	3.1961704	26.1412	25.9959	6.862364	30.89410
598	7.50298	3.1960151	26.4154	26.2686	6.862903	30.89573
599	7.50046	3.1958039	26.6897	26.5414	6.863311	30.89559
600	7.49625	3.1953751	26.9609	26.8111	6.864024	30.89463
601	7.49052	3.1953130	27.2201	27.0688	6.864746	30.89895
602	7.48584	3.1951329	27.5034	27.3505	6.865398	30.90106
603	7.48300	3.1951641	27.7625	27.6081	6.865728	30.90380
604	7.48027	3.1950710	28.0337	27.8778	6.866105	30.90512
605	7.47669	3.1947976	28.3204	28.1629	6.866670	30.90525
606	7.47301	3.1946485	28.6038	28.4447	6.867187	30.90680
607	7.46928	3.1950403	28.8628	28.7022	6.867453	30.91420
608	7.46334	3.1949285	29.1401	28.9780	6.868224	30.91817
609	7.45599	3.1948603	29.4175	29.2538	6.869144	30.92387
610	7.44333	3.1947984	29.6795	29.5144	6.870697	30.93438
611	7.42894	3.1944940	29.9538	29.7871	6.872573	30.94382
612	7.41812	3.1942829	30.2249	30.0566	6.873977	30.95109
613	7.41056	3.1940717	30.4964	30.3266	6.874991	30.95545
614	7.40217	3.1938544	30.7737	30.6024	6.876108	30.96049
615	7.39204	3.1934009	31.0481	30.8752	6.877546	30.96454
616	7.38056	3.1934011	31.3313	31.1569	6.878932	30.97468
617	7.36787	3.1933205	31.5906	31.4146	6.880500	30.98504
618	7.35592	3.1930659	31.8649	31.6874	6.882064	30.99287
619	7.34512	3.1929418	32.1360	31.9570	6.883427	31.00108
620	7.33391	3.1926997	32.4102	32.2296	6.884897	31.00839
621	7.32459	3.1925818	32.6785	32.4964	6.886080	31.01535
622	7.31746	3.1923955	32.9619	32.7782	6.887033	31.01960
623	7.31244	3.1925199	33.2301	33.0449	6.887583	31.02532
624	7.30883	3.1925822	33.5044	33.3177	6.887994	31.02910
625	7.30600	3.1923586	33.7818	33.5935	6.888447	31.02911
626	7.30411	3.1923338	34.0561	33.8662	6.888691	31.03041
627	7.30160	3.1921537	34.3302	34.1388	6.889085	31.03060
628	7.29742	3.1919426	34.6108	34.4178	6.889697	31.03195
629	7.29265	3.1919987	34.8819	34.6873	6.890249	31.03670
630	7.28826	3.1919429	35.1472	34.9511	6.890810	31.03993
631	7.28475	3.1917566	35.4247	35.2271	6.891327	31.04094
632	7.28146	3.1914212	35.7048	35.5056	6.891891	31.04016
633	7.27591	3.1907565	35.9820	35.7812	6.892885	31.03785
634	7.26911	3.1904957	36.2536	36.0513	6.893835	31.04102
635	7.26205	3.1900237	36.5246	36.3208	6.894918	31.04215
636	7.25416	3.1892971	36.7930	36.5876	6.896226	31.04128
637	7.24433	3.1882600	37.0765	36.8695	6.897916	31.03880
638	7.23038	3.1874094	37.3446	37.1361	6.900015	31.04204
639	7.21721	3.1871115	37.6127	37.4027	6.901754	31.05053
640	7.20557	3.1861057	37.8901	37.6785	6.903652	31.05002
641	7.19105	3.1855285	38.1613	37.9481	6.905690	31.05671
642	7.17566	3.1851128	38.4356	38.2209	6.907758	31.06594
643	7.16308	3.1849205	38.7038	38.4876	6.909377	31.07505
644	7.15239	3.1847407	38.9873	38.7695	6.910763	31.08261
645	7.14326	3.1845298	39.2952	39.0756	6.911975	31.08840
646	7.13576	3.1849211	39.5543	39.3333	6.912700	31.09928
647	7.12877	3.1848654	39.8286	39.6060	6.913578	31.10484
648	7.12314	3.1844682	40.0998	39.8756	6.914457	31.10550
649	7.11840	3.1844062	40.3649	40.1392	6.915067	31.10898
650	7.11324	3.1841953	40.6331	40.4059	6.915799	31.11123
651	7.10944	3.1842885	40.9043	40.6756	6.916220	31.11554
652	7.10741	3.1845928	41.1696	40.9394	6.916324	31.12055
653	7.10798	3.1853814	41.4437	41.2119	6.915878	31.12844
654	7.11121	3.1865363	41.7150	41.4816	6.914932	31.13789
655	7.11580	3.1872629	41.9861	41.7512	6.914030	31.14149
656	7.12111	3.1878095	42.2514	42.0150	6.913127	31.14248
657	7.12403	3.1877102	42.5226	42.2846	6.912828	31.13865
658	7.12304	3.1873873	42.8000	42.5605	6.913110	31.13593
659	7.11814	3.1872322	43.0594	42.8183	6.913783	31.13855
660	7.11111	3.1869902	43.3365	43.0939	6.914757	31.14216
661	7.10434	3.1868972	43.6078	43.3636	6.915628	31.14714
662	7.09793	3.1867483	43.8759	43.6303	6.916481	31.15119
663	7.09168	3.1864752	44.1473	43.9001	6.917376	31.15376
664	7.08569	3.1862642	44.4152	44.1665	6.918209	31.15676
665	7.08007	3.1860719	44.6959	44.4455	6.918990	31.15963
666	7.07533	3.1860472	44.9641	44.7122	6.919581	31.16352
667	7.07091	3.1858983	45.2352	44.9817	6.920195	31.16578
668	7.06680	3.1857432	45.5125	45.2575	6.920775	31.16769
669	7.06222	3.1854453	45.7867	45.5302	6.921480	31.16848
670	7.05733	3.1851722	46.0581	45.8000	6.922212	31.16982
671	7.05114	3.1850482	46.3264	46.0668	6.923028	31.17395
672	7.04495	3.1848559	46.6006	46.3394	6.923878	31.17734
673	7.03959	3.1847753	46.8536	46.5909	6.924572	31.18120
674	7.03439	3.1845954	47.1340	46.8697	6.925297	31.18382
675	7.02934	3.1843782	47.3929	47.1272	6.926020	31.18592
676	7.02534	3.1844404	47.6551	47.3879	6.926481	31.19009
677	7.02118	3.1844095	47.9112	47.6425	6.927006	31.19341
678	7.01671	3.1843538	48.1763	47.9061	6.927581	31.19673
679	7.01302	3.1842918	48.4505	48.1787	6.928065	31.19927
680	7.00938	3.1841243	48.7250	48.4516	6.928594	31.20063
681	7.00517	3.1838327	49.0084	48.7334	6.929253	31.20114
682	7.00003	3.1836838	49.2949	49.0182	6.929956	31.20406
683	6.99390	3.1836840	49.5540	49.2758	6.930706	31.20950
684	6.98652	3.1829579	49.8159	49.5363	6.931962	31.20818
685	6.97551	3.1813817	50.0996	49.8183	6.934076	31.20092
686	6.96191	3.1811399	50.3708	50.0880	6.935854	31.21050
687	6.94878	3.1810842	50.6298	50.3455	6.937484	31.22168
688	6.93737	3.1810162	50.9072	50.6213	6.938911	31.23117
689	6.92627	3.1808985	51.1877	50.9002	6.940326	31.23984
690	6.91501	3.1809855	51.4557	51.1666	6.941659	31.25089
691	6.90594	3.1808058	51.7332	51.4426	6.942857	31.25705
692	6.89853	3.1807439	52.0044	51.7122	6.943796	31.26299
693	6.89127	3.1806261	52.2757	51.9819	6.944743	31.26818
694	6.88267	3.1804091	52.5530	52.2576	6.945903	31.27351
695	6.87480	3.1802914	52.8244	52.5275	6.946926	31.27927
696	6.86848	3.1803226	53.0924	52.7940	6.947687	31.28524
697	6.86288	3.1801365	53.3668	53.0667	6.948466	31.28818
698	6.85683	3.1797458	53.6472	53.3455	6.949402	31.28931
699	6.84911	3.1795350	53.9246	53.6214	6.950453	31.29391
700	6.84047	3.1794111	54.1898	53.8850	6.951574	31.30031
701	6.83338	3.1793244	54.4577	54.1514	6.952487	31.30570
702	6.82660	3.1791074	54.7170	54.4092	6.953426	31.30940
703	6.81987	3.1789276	54.9791	54.6698	6.954341	31.31345
704	6.81268	3.1787168	55.2291	54.9183	6.955328	31.31759
705	6.80591	3.1785061	55.4942	55.1819	6.956265	31.32135
706	6.80033	3.1783511	55.7561	55.4423	6.957029	31.32463
707	6.79619	3.1782334	56.0183	55.7030	6.957597	31.32700
708	6.79242	3.1782087	56.2805	55.9636	6.958076	31.33005
709	6.78931	3.1781095	56.5517	56.2333	6.958510	31.33168
710	6.78663	3.1780538	56.8109	56.4910	6.958871	31.33340
711	6.78301	3.1778368	57.0639	56.7426	6.959425	31.33422
712	6.77779	3.1773531	57.3320	57.0091	6.960308	31.33358
713	6.76787	3.1770804	57.5941	57.2697	6.961661	31.33954
714	6.75619	3.1766402	57.8532	57.5273	6.963311	31.34528
715	6.74473	3.1763551	58.1305	57.8030	6.964861	31.35251
716	6.73425	3.1762064	58.3986	58.0696	6.966222	31.36035
717	6.72568	3.1761136	58.6638	58.3332	6.967322	31.36704
718	6.72005	3.1759649	58.9321	58.5999	6.968090	31.37044
719	6.71603	3.1759030	59.2064	58.8727	6.968619	31.37332
720	6.71293	3.1757232	59.4838	59.1485	6.969093	31.37406
721	6.71025	3.1758784	59.7428	59.4060	6.969350	31.37809
722	6.70772	3.1759033	60.0080	59.6697	6.969653	31.38055
723	6.70509	3.1756926	60.2761	59.9362	6.970086	31.38053
724	6.70385	3.1753888	60.5505	60.2090	6.970394	31.37822
725	6.69905	3.1747564	60.8156	60.4726	6.971301	31.37557
726	6.68977	3.1744217	61.0869	60.7423	6.972610	31.38028
727	6.67755	3.1737089	61.3460	60.9999	6.974467	31.38355
728	6.65235	3.1695004	61.6142	61.2666	6.979657	31.36042
729	6.61141	3.1669358	61.8915	61.5423	6.985970	31.36969
730	6.57082	3.1655177	62.1568	61.8060	6.991678	31.39123
731	6.53047	3.1631958	62.4249	62.0725	6.997815	31.40265
732	6.49207	3.1618712	62.6963	62.3424	7.003223	31.42327
733	6.46052	3.1614816	62.9614	62.6060	7.007320	31.44790
734	6.43657	3.1611538	63.2386	62.8815	7.010449	31.46622
735	6.41976	3.1608198	63.5100	63.1514	7.012701	31.47792
736	6.40732	3.1608819	63.7752	63.4150	7.014214	31.48997
737	6.39994	3.1609749	64.0405	63.6788	7.015085	31.49768
738	6.39477	3.1611050	64.3084	63.9452	7.015665	31.50376
739	6.39119	3.1610928	64.5861	64.2212	7.016121	31.50681
740	6.38929	3.1616067	64.8540	64.4876	7.016101	31.51410
741	6.38648	3.1622693	65.1192	64.7512	7.016121	31.52389
742	6.38156	3.1626905	65.3845	65.0150	7.016522	31.53296
743	6.37588	3.1624058	65.6588	65.2877	7.017374	31.53494
744	6.36984	3.1621149	65.9301	65.5574	7.018274	31.53719
745	6.36211	3.1616322	66.1982	65.8240	7.019480	31.53888
746	6.35239	3.1598928	66.4724	66.0966	7.021569	31.52854
747	6.33859	3.1582963	66.7438	66.3664	7.024094	31.52355
748	6.32171	3.1566257	67.0089	66.6300	7.027037	31.52057
749	6.30102	3.1553825	67.2679	66.8874	7.030241	31.52586
750	6.28202	3.1547518	67.5484	67.1663	7.032926	31.53635
751	6.26670	3.1543623	67.8105	67.4269	7.035033	31.54611
752	6.25394	3.1540903	68.0697	67.6846	7.036762	31.55481
753	6.24226	3.1535215	68.3409	67.9542	7.038510	31.55922
754	6.23134	3.1529218	68.6029	68.2147	7.040178	31.56258
755	6.22129	3.1526189	68.8742	68.4844	7.041588	31.56842
756	6.21283	3.1524706	69.1364	68.7450	7.042723	31.57451
757	6.20488	3.1518710	69.4076	69.0147	7.044024	31.57511
758	6.19682	3.1510549	69.7216	69.3269	7.045450	31.57340
759	6.18551	3.1498309	69.9929	69.5965	7.047490	31.57020
760	6.16814	3.1485454	70.2458	69.8480	7.050317	31.57195
761	6.14635	3.1456718	70.5293	70.1298	7.054511	31.56016
762	6.12274	3.1431206	70.7914	70.3904	7.058772	31.55364
763	6.10173	3.1450731	71.0596	70.6570	7.060401	31.59475
764	6.09365	3.1452833	71.3247	70.9206	7.061309	31.60449
765	6.07464	3.1354835	71.5838	71.1782	7.068726	31.51305
766	6.02665	3.1301474	71.8642	71.4570	7.077498	31.49812
767	5.97582	3.1286679	72.1233	71.7145	7.084655	31.52878
768	5.93468	3.1281628	72.3946	71.9843	7.090100	31.56134
769	5.90334	3.1284284	72.6536	72.2417	7.093915	31.59343
770	5.88057	3.1276086	72.9341	72.5206	7.097216	31.60540
771	5.86140	3.1269985	73.2083	72.7932	7.099956	31.61636
772	5.84356	3.1266473	73.4674	73.0508	7.102395	31.62900
773	5.82583	3.1253962	73.7325	73.3144	7.105292	31.63147
774	5.80719	3.1247246	74.0068	73.5871	7.108002	31.64126
775	5.79033	3.1248358	74.2749	73.8536	7.110081	31.65818
776	5.77373	3.1240040	74.5433	74.1204	7.112620	31.66430
777	5.75456	3.1226547	74.8207	74.3962	7.115757	31.66701
778	5.73373	3.1220142	75.0981	74.6720	7.118734	31.67923
779	5.71428	3.1216571	75.3631	74.9354	7.121391	31.69337
780	5.69544	3.1213925	75.6345	75.2052	7.123924	31.70798
781	5.67616	3.1226251	75.9118	75.4809	7.125727	31.73985
782	5.65879	3.1231121	76.1739	75.7414	7.127679	31.76156
783	5.64340	3.1230261	76.4545	76.0204	7.129683	31.77498
784	5.62922	3.1226258	76.7376	76.3019	7.131699	31.78371
785	5.61569	3.1221023	77.0244	76.5870	7.133698	31.79044
786	5.60062	3.1220470	77.2986	76.8596	7.135648	31.80393
787	5.58278	3.1219241	77.5760	77.1353	7.137985	31.81927
788	5.56641	3.1223125	77.8533	77.4110	7.139867	31.83900
789	5.55321	3.1213639	78.1214	77.6775	7.142053	31.84066
790	5.53685	3.1191711	78.3988	77.9533	7.145300	31.83126
791	5.51613	3.1173669	78.6884	78.2412	7.148901	31.83035
792	5.49387	3.1166529	78.9628	78.5140	7.152122	31.84324
793	5.47322	3.1163577	79.2492	78.7987	7.154918	31.85933
794	5.45714	3.1160562	79.5265	79.0744	7.157135	31.87104
795	5.44402	3.1153176	79.8313	79.3774	7.159209	31.87499
796	5.43231	3.1150839	80.1576	79.7018	7.160836	31.88330
797	5.42345	3.1174238	80.4471	79.9895	7.160727	31.91809
798	5.41980	3.1193085	80.7122	80.2531	7.160195	31.94279
799	5.41985	3.1193763	80.9927	80.5319	7.160159	31.94338
800	5.41289	3.1178983	81.2911	80.8286	7.161841	31.93310
801	5.39914	3.1176830	81.5625	81.0984	7.163719	31.94362
802	5.38484	3.1174554	81.8398	81.3741	7.165673	31.95453
803	5.37264	3.1170369	82.1325	81.6650	7.167462	31.96126
804	5.36334	3.1169939	82.4189	81.9497	7.168679	31.96949
805	5.35705	3.1170372	82.6902	82.2195	7.169467	31.97585
806	5.35220	3.1169511	82.9767	82.5043	7.170140	31.97936
807	5.34810	3.1168589	83.2633	82.7891	7.170719	31.98208
808	5.34466	3.1166804	83.5497	83.0739	7.171262	31.98320
809	5.34081	3.1165635	83.8272	83.3497	7.171823	31.98541
810	5.33722	3.1169516	84.1167	83.6376	7.172082	31.99311
811	5.33462	3.1178077	84.3940	83.9132	7.171962	32.00518
812	5.33317	3.1181342	84.6803	84.1978	7.171979	32.01013
813	5.33187	3.1187563	84.9701	84.4859	7.171819	32.01830
814	5.33047	3.1202162	85.2534	84.7675	7.171222	32.03608
815	5.32957	3.1210726	85.5277	85.0403	7.170885	32.04654
816	5.32868	3.1221386	85.8111	85.3220	7.170435	32.05937
817	5.33142	3.1242770	86.0977	85.6068	7.168946	32.08091
818	5.33592	3.1246653	86.3812	85.8887	7.168171	32.08088
819	5.33841	3.1255530	86.6645	86.1703	7.167384	32.08843
820	5.34106	3.1265024	86.9481	86.4523	7.166544	32.09655
821	5.34331	3.1275567	87.2286	86.7311	7.165700	32.10624
822	5.34606	3.1279329	87.5241	87.0248	7.165155	32.10774
823	5.34715	3.1281117	87.8013	87.3004	7.164926	32.10858
824	5.34930	3.1302517	88.0819	87.5793	7.163514	32.13070
825	5.35520	3.1317321	88.3653	87.8611	7.161978	32.14172
826	5.35979	3.1320097	88.6488	88.1428	7.161250	32.14033
827	5.36239	3.1322195	88.9445	88.4368	7.160814	32.14008
828	5.36439	3.1335276	89.2156	88.7063	7.159867	32.15289
829	5.36964	3.1354776	89.5052	88.9942	7.158164	32.16986
830	5.37744	3.1366626	89.7917	89.2790	7.156546	32.17569
831	5.38629	3.1374959	90.0904	89.5759	7.154982	32.17652
832	5.39429	3.1381195	90.4197	89.9033	7.153640	32.17576
833	5.39969	3.1387492	90.7302	90.2120	7.152625	32.17758
834	5.39779	3.1374652	91.0018	90.4819	7.153557	32.16470
835	5.38629	3.1356754	91.2883	90.7667	7.155981	32.15527
836	5.37264	3.1352313	91.5837	91.0604	7.157962	32.16317
837	5.36094	3.1368301	91.8642	91.3392	7.158602	32.19241
838	5.35475	3.1387810	92.1569	91.6301	7.158355	32.22038
839	5.35265	3.1407508	92.4494	91.9210	7.157576	32.24464
840	5.35470	3.1431103	92.7328	92.2026	7.156061	32.26935
841	5.35795	3.1433574	93.0194	92.4875	7.155523	32.26889
842	5.35845	3.1440124	93.3151	92.7814	7.155116	32.27571
843	5.36124	3.1457733	93.6015	93.0662	7.153827	32.29289
844	5.36349	3.1458043	93.8818	93.3449	7.153531	32.29093
845	5.35785	3.1456623	94.1745	93.6358	7.154331	32.29462
846	5.34925	3.1457737	94.4672	93.9268	7.155370	32.30402
847	5.34216	3.1461632	94.7537	94.2115	7.156069	32.31514
848	5.33736	3.1465526	95.0431	94.4992	7.156477	32.32405
849	5.33477	3.1474242	95.3327	94.7871	7.156347	32.33633
850	5.33377	3.1478136	95.6283	95.0809	7.156273	32.34157
851	5.33162	3.1479003	95.9210	95.3719	7.156506	32.34449
852	5.32893	3.1486236	96.2045	95.6537	7.156468	32.35518
853	5.32818	3.1499404	96.4970	95.9445	7.155865	32.37074
854	5.33017	3.1523705	96.7866	96.2324	7.154318	32.39632
855	5.33452	3.1539601	97.0732	96.5172	7.152924	32.41006
856	5.33951	3.1551292	97.3596	96.8019	7.151672	32.41839
857	5.34491	3.1564532	97.6552	97.0958	7.150287	32.42809
858	5.34970	3.1577156	97.9355	97.3744	7.149012	32.43767
859	5.35355	3.1583592	98.2221	97.6592	7.148187	32.44113
860	5.35650	3.1589472	98.5178	97.9532	7.147507	32.44482
861	5.35890	3.1594300	98.8103	98.2440	7.146952	32.44784
862	5.36039	3.1602719	99.0907	98.5227	7.146319	32.45583
863	5.36089	3.1614420	99.3803	98.8105	7.145638	32.46851
864	5.36139	3.1622346	99.6757	99.1042	7.145158	32.47689
865	5.36169	3.1630086	99.9654	99.3922	7.144714	32.48526
866	5.36154	3.1634050	100.2549	99.6800	7.144528	32.48977
867	5.36139	3.1641545	100.5752	99.9983	7.144154	32.49828
868	5.36179	3.1647863	100.8951	100.3163	7.143774	32.50492
869	5.36234	3.1659013	101.1844	100.6039	7.143116	32.51693
870	5.36359	3.1676421	101.4680	100.8858	7.142035	32.53538
871	5.36729	3.1700650	101.7667	101.1827	7.140282	32.55920
872	5.37539	3.1725443	102.0654	101.4796	7.137945	32.57939
873	5.38639	3.1739951	102.3581	101.7705	7.135791	32.58506
874	5.39679	3.1750864	102.6446	102.0553	7.133904	32.58722
875	5.40594	3.1759918	102.9462	102.3551	7.132276	32.58847
876	5.41359	3.1766368	103.2326	102.6398	7.130975	32.58823
877	5.41980	3.1772943	103.5225	102.9280	7.129850	32.58953
878	5.42425	3.1776852	103.8210	103.2247	7.129089	32.58950
879	5.42770	3.1782311	104.1166	103.5185	7.128370	32.59220
880	5.43086	3.1786220	104.4001	103.8003	7.127772	32.59344
881	5.43281	3.1788082	104.6896	104.0880	7.127434	32.59351
882	5.43386	3.1790378	104.9853	104.3820	7.127187	32.59496
883	5.43531	3.1806821	105.2839	104.6788	7.126137	32.61207
884	5.43877	3.1821406	105.5795	104.9726	7.124935	32.62513
885	5.44182	3.1829599	105.8723	105.2636	7.124122	32.63133
886	5.44342	3.1835373	106.1707	105.5603	7.123621	32.63618
887	5.44507	3.1838415	106.4696	105.8574	7.123259	32.63788
888	5.44633	3.1840216	106.7590	106.1451	7.123013	32.63856
889	5.44603	3.1839596	107.0486	106.4329	7.123090	32.63801
890	5.44432	3.1838666	107.3444	106.7269	7.123360	32.63846
891	5.44192	3.1837177	107.6399	107.0207	7.123748	32.63896
892	5.43942	3.1835937	107.9417	107.3207	7.124136	32.63983
893	5.43681	3.1835069	108.2404	107.6175	7.124516	32.64123
894	5.43451	3.1834450	108.5237	107.8992	7.124845	32.64263
895	5.43231	3.1833209	108.8132	108.1869	7.125194	32.64322
896	5.42911	3.1829300	109.1060	108.4780	7.125812	32.64174
897	5.42360	3.1825577	109.4016	108.7717	7.126709	32.64272
898	5.41805	3.1824772	109.6912	109.0596	7.127457	32.64707
899	5.41289	3.1825953	109.9837	109.3503	7.128049	32.65328
900	5.40874	3.1836568	110.2854	109.6502	7.128014	32.66923
901	5.40684	3.1846316	110.5781	109.9412	7.127741	32.68202
902	5.40599	3.1849048	110.8889	110.2501	7.127710	32.68580
903	5.40529	3.1853582	111.2303	110.5895	7.127564	32.69147
904	5.40454	3.1854080	111.5381	110.8954	7.127639	32.69261
905	5.40389	3.1860290	111.8277	111.1833	7.127397	32.70016
906	5.40344	3.1863023	112.1172	111.4710	7.127315	32.70356
907	5.40359	3.1864514	112.4220	111.7740	7.127224	32.70496
908	5.40434	3.1869979	112.7207	112.0709	7.126846	32.71030
909	5.40474	3.1871781	113.0103	112.3587	7.126706	32.71181
910	5.40464	3.1879980	113.2997	112.6463	7.126289	32.72109
911	5.40409	3.1885509	113.6077	112.9524	7.126071	32.72776
912	5.40369	3.1889050	113.9065	113.2495	7.125940	32.73203
913	5.40329	3.1891846	114.2050	113.5462	7.125849	32.73545
914	5.40289	3.1893711	114.4976	113.8370	7.125806	32.73781
915	5.40224	3.1895203	114.8023	114.1398	7.125816	32.73999
916	5.40164	3.1895825	115.0951	114.4309	7.125865	32.74114
917	5.40134	3.1896757	115.3997	114.7336	7.125860	32.74234
918	5.40074	3.1898249	115.6922	115.0243	7.125863	32.74448
919	5.40009	3.1899493	115.9849	115.3153	7.125885	32.74638
920	5.39909	3.1900612	116.2869	115.6155	7.125958	32.74848
921	5.39849	3.1902787	116.5884	115.9152	7.125925	32.75139
922	5.39774	3.1907075	116.8841	116.2091	7.125798	32.75685
923	5.39709	3.1913475	117.1827	116.5059	7.125546	32.76462
924	5.39624	3.1917391	117.4875	116.8089	7.125451	32.76975
925	5.39554	3.1919256	117.7893	117.1088	7.125447	32.77241
926	5.39499	3.1920438	118.0849	117.4026	7.125460	32.77414
927	5.39439	3.1923794	118.3898	117.7056	7.125364	32.77839
928	5.39404	3.1932060	118.6853	117.9993	7.124974	32.78799
929	5.39369	3.1941073	118.9779	118.2902	7.124545	32.79844
930	5.39259	3.1944244	119.2584	118.5690	7.124521	32.80299
931	5.39189	3.1949404	119.5569	118.8657	7.124341	32.80939
932	5.39264	3.1959164	119.8558	119.1628	7.123735	32.81962
933	5.39509	3.1966750	120.1515	119.4566	7.123030	32.82570
934	5.39779	3.1969797	120.4411	119.7445	7.122536	32.82638
935	5.40004	3.1971663	120.7426	120.0442	7.122161	32.82615
936	5.40169	3.1973156	121.0506	120.3503	7.121882	32.82608
937	5.40309	3.1975892	121.3767	120.6744	7.121568	32.82766
938	5.40469	3.1979002	121.6997	120.9955	7.121210	32.82948
939	5.40644	3.1984164	122.0075	121.3014	7.120723	32.83348
940	5.40834	3.1987523	122.3031	121.5952	7.120313	32.83529
941	5.40994	3.1989016	122.5927	121.8830	7.120039	32.83528
942	5.41169	3.1990883	122.8946	122.1831	7.119728	32.83554
943	5.41319	3.1995112	123.1903	122.4769	7.119322	32.83874
944	5.41484	3.2004007	123.4981	122.7829	7.118649	32.84708
945	5.41670	3.2010975	123.7997	123.0826	7.118054	32.85304
946	5.41875	3.2015268	124.1016	123.3828	7.117575	32.85577
947	5.42040	3.2016513	124.4093	123.6886	7.117310	32.85541
948	5.42160	3.2017696	124.7172	123.9946	7.117103	32.85543
949	5.42265	3.2018630	125.0158	124.2913	7.116929	32.85532
950	5.42315	3.2019564	125.3115	124.5852	7.116824	32.85574
951	5.42345	3.2025972	125.6163	124.8882	7.116453	32.86258
952	5.42455	3.2032382	125.9209	125.1909	7.115981	32.86864
953	5.42610	3.2038169	126.2228	125.4910	7.115487	32.87355
954	5.42765	3.2044020	126.5276	125.7940	7.114989	32.87853
955	5.42906	3.2048874	126.8294	126.0939	7.114563	32.88253
956	5.42991	3.2060825	127.1370	126.3997	7.113829	32.89513
957	5.43076	3.2067237	127.4419	126.7027	7.113389	32.90143
958	5.43106	3.2072156	127.7527	127.0116	7.113097	32.90658
959	5.43131	3.2076078	128.0516	127.3086	7.112865	32.91064
960	5.43161	3.2081620	128.3714	127.6265	7.112540	32.91649
961	5.43266	3.2090338	128.6733	127.9265	7.111953	32.92522
962	5.43461	3.2095070	128.9719	128.2233	7.111465	32.92854
963	5.43696	3.2100302	129.2735	128.5231	7.110900	32.93203
964	5.43892	3.2102108	129.5786	128.8263	7.110567	32.93202
965	5.43957	3.2103978	129.8770	129.1229	7.110393	32.93335
966	5.43872	3.2105785	130.1758	129.4199	7.110411	32.93609
967	5.43586	3.2106097	130.4775	129.7197	7.110758	32.93910
968	5.43186	3.2113447	130.7916	130.0319	7.110875	32.95123
969	5.42791	3.2123601	131.0900	130.3285	7.110837	32.96651
970	5.42510	3.2126032	131.4163	130.6527	7.111066	32.97186
971	5.42315	3.2127590	131.7515	130.9859	7.111235	32.97538
972	5.42180	3.2129398	132.0774	131.3098	7.111315	32.97860
973	5.42110	3.2132763	132.3793	131.6099	7.111231	32.98297
974	5.42095	3.2134321	132.6781	131.9068	7.111174	32.98474
975	5.42120	3.2134945	132.9828	132.2096	7.111116	32.98505
976	5.42160	3.2135258	133.2875	132.5125	7.111057	32.98486
977	5.42190	3.2137688	133.5833	132.8065	7.110897	32.98718
978	5.42240	3.2139558	133.8880	133.1093	7.110742	32.98867
979	5.42315	3.2143235	134.1898	133.4092	7.110460	32.99196
980	5.42435	3.2145665	134.4946	133.7122	7.110188	32.99339
981	5.42560	3.2147224	134.7964	134.0121	7.109956	32.99379
982	5.42665	3.2149343	135.1011	134.3150	7.109720	32.99501
983	5.42720	3.2153955	135.4121	134.6240	7.109413	32.99956
984	5.42770	3.2157632	135.7168	134.9269	7.109163	33.00310
985	5.42796	3.2164114	136.0245	135.2327	7.108794	33.01007
986	5.42770	3.2168353	136.3385	135.5448	7.108608	33.01499
987	5.42675	3.2172966	136.6467	135.8510	7.108489	33.02101
988	5.42685	3.2186181	136.9570	136.1594	7.107782	33.03579
989	5.42961	3.2196966	137.2620	136.4625	7.106873	33.04520
990	5.43166	3.2204636	137.5668	136.7655	7.106217	33.05175
991	5.43441	3.2221535	137.8746	137.0714	7.104984	33.06811
992	5.43792	3.2231389	138.1792	137.3741	7.104032	33.07572
993	5.44082	3.2239373	138.4934	137.6863	7.103254	33.08178
994	5.44307	3.2243616	138.8073	137.9984	7.102756	33.08423
995	5.44447	3.2246798	139.1213	138.3104	7.102419	33.08631
996	5.44543	3.2249855	139.4292	138.6164	7.102146	33.08870
997	5.44563	3.2252913	139.7275	138.9129	7.101966	33.09183
998	5.44517	3.2260650	140.0446	139.2281	7.101619	33.10091
999	5.44342	3.2263397	140.3494	139.5309	7.101699	33.10561
1000	5.44097	3.2263710	140.6481	139.8278	7.101994	33.10824
1001	5.43787	3.2264023	140.9620	140.1397	7.102372	33.11150
1002	5.43481	3.2264648	141.2605	140.4364	7.102726	33.11507
1003	5.43181	3.2264961	141.5838	140.7577	7.103091	33.11823
1004	5.42961	3.2265275	141.9281	141.0999	7.103356	33.12058
1005	5.42776	3.2266212	142.2576	141.4274	7.103545	33.12331
1006	5.42610	3.2267086	142.5682	141.7360	7.103711	33.12578
1007	5.42495	3.2267711	142.8609	142.0269	7.103828	33.12748
1008	5.42370	3.2266527	143.1686	142.3327	7.104054	33.12721
1009	5.42150	3.2266778	143.4765	142.6387	7.104322	33.12952
1010	5.41925	3.2267715	143.7935	142.9538	7.104560	33.13265
1011	5.41775	3.2270836	144.1043	143.2626	7.104589	33.13753
1012	5.41730	3.2273583	144.4181	143.5745	7.104506	33.14094
1013	5.41725	3.2275768	144.7261	143.8806	7.104404	33.14332
1014	5.41730	3.2277578	145.0462	144.1987	7.104309	33.14517
1015	5.41700	3.2279139	145.3601	144.5107	7.104271	33.14709
1016	5.41650	3.2281886	145.6617	144.8104	7.104194	33.15056
1017	5.41640	3.2285320	145.9786	145.1254	7.104032	33.15441
1018	5.41690	3.2289627	146.2955	145.4403	7.103748	33.15866
1019	5.41780	3.2293934	146.6065	145.7494	7.103414	33.16252
1020	5.41840	3.2295808	146.9235	146.0643	7.103248	33.16390
1021	5.41865	3.2296682	147.2374	146.3763	7.103177	33.16449
1022	5.41880	3.2297620	147.5483	146.6853	7.103116	33.16525
1023	5.41855	3.2298245	147.8652	147.0002	7.103122	33.16605
1024	5.41770	3.2302553	148.1852	147.3183	7.103006	33.17164
1025	5.41640	3.2309046	148.4900	147.6212	7.102830	33.18016
1026	5.41514	3.2318287	148.8071	147.9363	7.102503	33.19176
1027	5.41379	3.2321098	149.1177	148.2449	7.102529	33.19614
1028	5.41299	3.2324782	149.4378	148.5631	7.102440	33.20096
1029	5.41269	3.2332526	149.7486	148.8720	7.102074	33.20992
1030	5.41239	3.2335275	150.0565	149.1779	7.101972	33.21320
1031	5.41214	3.2336525	150.3707	149.4902	7.101944	33.21471
1032	5.41204	3.2338024	150.6782	149.7958	7.101884	33.21636
1033	5.41199	3.2339899	150.9985	150.1140	7.101798	33.21838
1034	5.41219	3.2342398	151.3062	150.4198	7.101648	33.22088
1035	5.41264	3.2343335	151.6170	150.7287	7.101549	33.22134
1036	5.41314	3.2343649	151.9338	151.0435	7.101478	33.22105
1037	5.41354	3.2344586	152.2907	151.3982	7.101387	33.22154
1038	5.41379	3.2345524	152.6137	151.7192	7.101313	33.22220
1039	5.41399	3.2346400	152.9335	152.0370	7.101249	33.22284
1040	5.41419	3.2348274	153.2232	152.3249	7.101132	33.22463
1041	5.41459	3.2348899	153.5187	152.6186	7.101056	33.22480
1042	5.41514	3.2349837	153.8234	152.9213	7.100945	33.22517
1043	5.41560	3.2351087	154.1284	153.2244	7.100829	33.22599
1044	5.41590	3.2351650	154.4330	153.5272	7.100769	33.22618
1045	5.41600	3.2352588	154.7289	153.8213	7.100714	33.22700
1046	5.41620	3.2354463	155.0060	154.0966	7.100596	33.22880
1047	5.41615	3.2356025	155.2255	154.3147	7.100524	33.23052
1048	5.41615	3.2357524	155.3232	154.4118	7.100447	33.23218
1049	5.41625	3.2357837	155.2991	154.3878	7.100418	33.23245
1050	5.41765	3.2359710	155.2259	154.3151	7.100142	33.23323
1051	5.41910	3.2359710	155.2050	154.2943	7.099961	33.23180
1052	5.41985	3.2359710	155.2266	154.3158	7.099869	33.23105
1053	5.41985	3.2361272	155.2538	154.3429	7.099786	33.23281
1054	5.41995	3.2362833	155.2571	154.3461	7.099691	33.23449
1055	5.42010	3.2363395	155.2388	154.3279	7.099642	33.23499
1056	5.41975	3.2365269	155.2359	154.3251	7.099586	33.23747
1057	5.41945	3.2365582	155.2393	154.3285	7.099607	33.23812
1058	5.41915	3.2366831	155.2425	154.3316	7.099578	33.23984
1059	5.41930	3.2368393	155.2458	154.3349	7.099476	33.24147
1060	5.41955	3.2369580	155.2455	154.3346	7.099382	33.24257
1061	5.41980	3.2370517	155.2490	154.3381	7.099302	33.24339
1062	5.41995	3.2371766	155.2550	154.3441	7.099217	33.24466
1063	5.42030	3.2370829	155.2492	154.3383	7.099223	33.24325
1064	5.42040	3.2370204	155.2341	154.3232	7.099243	33.24245
1065	5.42100	3.2372391	155.2314	154.3206	7.099053	33.24435
1066	5.42220	3.2374577	155.2467	154.3358	7.098788	33.24564
1067	5.42300	3.2374890	155.2499	154.3390	7.098672	33.24520
1068	5.42370	3.2370204	155.2286	154.3178	7.098833	33.23918
1069	5.42570	3.2369579	155.1192	154.2091	7.098615	33.23654
1070	5.43056	3.2368703	154.9365	154.0276	7.098054	33.23083
1071	5.43216	3.2368390	154.7265	153.8188	7.097866	33.22900
1072	5.43256	3.2372075	154.5285	153.6221	7.097616	33.23290
1073	5.43306	3.2373636	154.3245	153.4193	7.097467	33.23428
1074	5.43366	3.2375135	154.1173	153.2135	7.097308	33.23549
1075	5.43441	3.2375759	153.8984	152.9959	7.097176	33.23557
1076	5.43471	3.2374571	153.6821	152.7809	7.097197	33.23403
1077	5.43461	3.2372696	153.4599	152.5602	7.097304	33.23211
1078	5.43346	3.2371446	153.2315	152.3331	7.097508	33.23194
1079	5.43191	3.2370196	153.0153	152.1183	7.097762	33.23216
1080	5.43036	3.2368697	152.7898	151.8942	7.098029	33.23210
1081	5.42941	3.2367759	152.5556	151.6615	7.098191	33.23209
1082	5.42851	3.2367133	152.3120	151.4194	7.098331	33.23239
1083	5.42786	3.2366508	152.0626	151.1715	7.098439	33.23245
1084	5.42715	3.2365258	151.8068	150.9174	7.098586	33.23185
1085	5.42640	3.2363383	151.5570	150.6691	7.098773	33.23058
1086	5.42575	3.2362820	151.3075	150.4211	7.098878	33.23071
1087	5.42535	3.2362507	151.0517	150.1669	7.098938	33.23088
1088	5.42485	3.2361257	150.7960	149.9128	7.099061	33.23008
1089	5.42425	3.2359383	150.5309	149.6494	7.099229	33.22867
1090	5.42355	3.2358757	150.2662	149.3863	7.099343	33.22879
1091	5.42300	3.2357819	150.0041	149.1258	7.099455	33.22839
1092	5.42250	3.2356632	149.7303	148.8537	7.099574	33.22767
1093	5.42180	3.2355070	149.4651	148.5902	7.099738	33.22672
1094	5.42130	3.2354756	149.2034	148.3301	7.099810	33.22699
1095	5.42080	3.2353819	148.9353	148.0637	7.099916	33.22655
1096	5.42015	3.2353193	148.6674	147.7975	7.100024	33.22662
1097	5.41940	3.2352256	148.4027	147.5344	7.100161	33.22643
1098	5.41900	3.2351630	148.1315	147.2649	7.100237	33.22625
1099	5.41865	3.2350443	147.8697	147.0047	7.100338	33.22537
1100	5.41850	3.2349505	147.5988	146.7354	7.100400	33.22459
1101	5.41820	3.2348255	147.3339	146.4722	7.100497	33.22360
1102	5.41800	3.2346381	147.0628	146.2028	7.100616	33.22180
1103	5.41730	3.2343944	146.7978	145.9394	7.100826	33.21985
1104	5.41700	3.2341758	146.5331	145.6764	7.100973	33.21779
1105	5.41675	3.2338073	146.2590	145.4040	7.101193	33.21398
1106	5.41680	3.2333763	145.9878	145.1345	7.101410	33.20916
1107	5.41690	3.2330328	145.7198	144.8681	7.101573	33.20528
1108	5.41715	3.2326955	145.4460	144.5960	7.101715	33.20133
1109	5.41760	3.2323520	145.1628	144.3146	7.101835	33.19712
1110	5.41835	3.2320147	144.8947	144.0482	7.101914	33.19267
1111	5.41920	3.2317961	144.6268	143.7819	7.101918	33.18947
1112	5.41985	3.2316150	144.3526	143.5094	7.101927	33.18691
1113	5.42030	3.2314900	144.0786	143.2371	7.101931	33.18518
1114	5.42055	3.2311840	143.8017	142.9619	7.102056	33.18158
1115	5.42055	3.2308718	143.5274	142.6893	7.102215	33.17817
1116	5.42045	3.2304722	143.2625	142.4261	7.102434	33.17385
1117	5.42030	3.2301350	142.9763	142.1416	7.102625	33.17030
1118	5.42010	3.2298541	142.7052	141.8722	7.102792	33.16744
1119	5.42000	3.2296418	142.4312	141.5999	7.102911	33.16526
1120	5.42000	3.2293296	142.1570	141.3274	7.103070	33.16184
1121	5.41995	3.2292047	141.8649	141.0371	7.103136	33.16062
1122	5.41980	3.2291172	141.5695	140.7435	7.103194	33.15992
1123	5.41975	3.2285929	141.2831	140.4588	7.103472	33.15414
1124	5.41980	3.2284243	141.0184	140.1958	7.103549	33.15230
1125	5.42020	3.2284055	140.7444	139.9235	7.103503	33.15183
1126	5.42065	3.2283430	140.4641	139.6449	7.103474	33.15082
1127	5.42085	3.2280995	140.1871	139.3697	7.103572	33.14799
1128	5.42105	3.2279746	139.9159	139.1001	7.103607	33.14650
1129	5.42160	3.2279433	139.6448	138.8307	7.103548	33.14574
1130	5.42235	3.2278496	139.3645	138.5522	7.103498	33.14407
1131	5.42300	3.2277559	139.0878	138.2771	7.103460	33.14250
1132	5.42365	3.2276622	138.8135	138.0045	7.103423	33.14093
1133	5.42480	3.2276372	138.5456	137.7382	7.103287	33.13964
1134	5.42610	3.2275747	138.2686	137.4629	7.103151	33.13779
1135	5.42786	3.2275122	137.9851	137.1812	7.102960	33.13549
1136	5.42976	3.2273872	137.7143	136.9120	7.102783	33.13232
1137	5.43176	3.2272935	137.4370	136.6365	7.102577	33.12942
1138	5.43331	3.2271437	137.1692	136.3703	7.102457	33.12632
1139	5.43491	3.2269564	136.8980	136.1008	7.102351	33.12274
1140	5.43646	3.2267379	136.6180	135.8226	7.102267	33.11887
1141	5.43827	3.2264633	136.3500	135.5562	7.102182	33.11410
1142	5.43977	3.2262136	136.0697	135.2776	7.102121	33.10992
1143	5.44102	3.2257518	135.7896	134.9992	7.102203	33.10357
1144	5.44177	3.2252900	135.5216	134.7329	7.102349	33.09771
1145	5.44212	3.2247971	135.2475	134.4604	7.102560	33.09190
1146	5.44197	3.2241857	134.9674	134.1820	7.102897	33.08523
1147	5.44112	3.2234434	134.6930	133.9094	7.103390	33.07777
1148	5.43982	3.2226762	134.4254	133.6434	7.103953	33.07046
1149	5.43837	3.2219714	134.1484	133.3681	7.104501	33.06401
1150	5.43671	3.2212293	133.8682	133.0896	7.105094	33.05733
1151	5.43526	3.2204935	133.6032	132.8262	7.105660	33.05052
1152	5.43406	3.2200944	133.3289	132.5536	7.106015	33.04730
1153	5.43316	3.2197576	133.0552	132.2816	7.106300	33.04450
1154	5.43241	3.2191342	132.7746	132.0027	7.106718	33.03828
1155	5.43156	3.2185232	132.5069	131.7367	7.107142	33.03231
1156	5.43081	3.2181242	132.2268	131.4583	7.107441	33.02865
1157	5.43021	3.2176940	131.9527	131.1859	7.107738	33.02448
1158	5.42951	3.2172950	131.6725	130.9074	7.108030	33.02077
1159	5.42871	3.2169272	131.3770	130.6137	7.108319	33.01752
1160	5.42786	3.2164099	131.0966	130.3350	7.108693	33.01261
1161	5.42705	3.2161605	130.8227	130.0628	7.108919	33.01070
1162	5.42650	3.2160047	130.5517	129.7935	7.109064	33.00960
1163	5.42590	3.2159174	130.2777	129.5211	7.109179	33.00934
1164	5.42535	3.2156057	130.0034	129.2485	7.109407	33.00647
1165	5.42470	3.2153626	129.7234	128.9702	7.109611	33.00449
1166	5.42435	3.2150261	129.4523	128.7008	7.109827	33.00114
1167	5.42445	3.2144714	129.1720	128.4222	7.110102	32.99487
1168	5.42455	3.2141038	128.8980	128.1499	7.110279	32.99073
1169	5.42450	3.2136115	128.6241	127.8776	7.110540	32.98531
1170	5.42495	3.2135553	128.3468	127.6020	7.110507	32.98437
1171	5.42560	3.2132002	128.0697	127.3267	7.110608	32.97983
1172	5.42655	3.2129384	127.7955	127.0541	7.110622	32.97605
1173	5.42740	3.2126331	127.5218	126.7820	7.110672	32.97188
1174	5.42851	3.2122966	127.2474	126.5093	7.110706	32.96711
1175	5.42906	3.2117733	126.9701	126.2338	7.110909	32.96076
1176	5.42946	3.2111006	126.6931	125.9585	7.111210	32.95285
1177	5.42986	3.2105774	126.4252	125.6922	7.111431	32.94664
1178	5.43006	3.2100604	126.1448	125.4135	7.111674	32.94071
1179	5.43001	3.2095061	125.8677	125.1381	7.111968	32.93459
1180	5.43011	3.2091076	125.5939	124.8659	7.112161	32.93010
1181	5.43011	3.2089892	125.3197	124.5934	7.112218	32.92889
1182	5.43006	3.2085906	125.0393	124.3147	7.112429	32.92454
1183	5.43016	3.2081298	124.7683	124.0453	7.112655	32.91934
1184	5.42991	3.2077624	124.4911	123.7699	7.112875	32.91555
1185	5.42981	3.2074760	124.2143	123.4947	7.113033	32.91253
1186	5.42986	3.2070277	123.9309	123.2131	7.113258	32.90752
1187	5.42946	3.2066292	123.6628	122.9466	7.113514	32.90352
1188	5.42896	3.2062930	123.3888	122.6743	7.113749	32.90032
1189	5.42831	3.2059879	123.1086	122.3958	7.113986	32.89763
1190	5.42755	3.2055584	122.8344	122.1233	7.114301	32.89362
1191	5.42675	3.2048862	122.5542	121.8448	7.114752	32.88690
1192	5.42580	3.2044567	122.2741	121.5663	7.115093	32.88308
1193	5.42525	3.2042139	122.0031	121.2970	7.115284	32.88100
1194	5.42455	3.2039711	121.7287	121.0243	7.115495	32.87906
1195	5.42400	3.2038155	121.4397	120.7370	7.115639	32.87797
1196	5.42300	3.2034794	121.1443	120.4435	7.115936	32.87528
1197	5.42200	3.2025398	120.8609	120.1617	7.116554	32.86572
1198	5.42085	3.2021353	120.5899	119.8924	7.116907	32.86238
1199	5.41990	3.2018926	120.3128	119.6170	7.117149	32.86069
1200	5.41885	3.2016500	120.0388	119.3446	7.117403	32.85909
1201	5.41745	3.2011895	119.7613	119.0688	7.117817	32.85537
1202	5.41600	3.2007354	119.4874	118.7966	7.118234	32.85176
1203	5.41439	3.2003994	119.2103	118.5211	7.118606	32.84964
1204	5.41274	3.2001817	118.9361	118.2486	7.118923	32.84892
1205	5.41139	3.1998768	118.6620	117.9762	7.119248	32.84691
1206	5.41019	3.1996342	118.3879	117.7037	7.119521	32.84546
1207	5.40869	3.1993294	118.1045	117.4221	7.119864	32.84360
1208	5.40714	3.1990930	117.8275	117.1468	7.120178	32.84257
1209	5.40534	3.1986265	117.5474	116.8683	7.120645	32.83917
1210	5.40359	3.1985021	117.2731	116.5957	7.120925	32.83960
1211	5.40199	3.1980480	116.9990	116.3233	7.121360	32.83614
1212	5.40014	3.1975257	116.7218	116.0478	7.121864	32.83214
1213	5.39824	3.1968292	116.4508	115.7784	7.122467	32.82621
1214	5.39689	3.1961577	116.1736	115.5028	7.122987	32.82003
1215	5.39579	3.1956976	115.9087	115.2395	7.123364	32.81601
1216	5.39489	3.1950883	115.6528	114.9852	7.123795	32.81008
1217	5.39429	3.1947526	115.4029	114.7368	7.124043	32.80698
1218	5.39379	3.1945536	115.1502	114.4857	7.124206	32.80533
1219	5.39324	3.1941433	114.8913	114.2284	7.124488	32.80132
1220	5.39279	3.1937828	114.6233	113.9620	7.124730	32.79780
1221	5.39279	3.1937516	114.3583	113.6986	7.124740	32.79757
1222	5.39244	3.1930493	114.0871	113.4290	7.125152	32.79006
1223	5.39244	3.1924402	113.8164	113.1599	7.125470	32.78326
1224	5.39264	3.1921977	113.5453	112.8905	7.125568	32.78045
1225	5.39314	3.1919864	113.2803	112.6271	7.125611	32.77768
1226	5.39349	3.1918247	113.0093	112.3577	7.125647	32.77564
1227	5.39394	3.1915575	112.7445	112.0945	7.125727	32.77229
1228	5.39439	3.1911597	112.4792	111.8308	7.125876	32.76746
1229	5.39474	3.1908863	112.2081	111.5614	7.125971	32.76414
1230	5.39534	3.1905818	111.9401	111.2949	7.126051	32.76022
1231	5.39579	3.1901903	111.6691	111.0256	7.126197	32.75547
1232	5.39629	3.1897305	111.3949	110.7531	7.126373	32.74988
1233	5.39659	3.1894881	111.1085	110.4684	7.126457	32.74698
1234	5.39689	3.1889725	110.8316	110.1931	7.126688	32.74096
1235	5.39729	3.1883264	110.5575	109.9207	7.126975	32.73335
1236	5.39764	3.1881214	110.2924	109.6572	7.127034	32.73081
1237	5.39774	3.1879971	110.0182	109.3847	7.127081	32.72944
1238	5.39774	3.1876678	109.7534	109.1214	7.127250	32.72582
1239	5.39769	3.1873324	109.4822	108.8519	7.127429	32.72219
1240	5.39749	3.1870280	109.2110	108.5823	7.127610	32.71906
1241	5.39744	3.1868478	108.9400	108.3129	7.127706	32.71719
1242	5.39719	3.1864503	108.6691	108.0436	7.127942	32.71305
1243	5.39709	3.1860466	108.4070	107.7831	7.128164	32.70869
1244	5.39674	3.1856616	108.1329	107.5107	7.128406	32.70479
1245	5.39659	3.1854193	107.8678	107.2472	7.128548	32.70231
1246	5.39649	3.1850840	107.6029	106.9839	7.128733	32.69873
1247	5.39654	3.1845065	107.3258	106.7084	7.129028	32.69225
1248	5.39749	3.1842022	107.0578	106.4421	7.129064	32.68799
1249	5.39949	3.1841711	106.7895	106.1754	7.128823	32.68582
1250	5.40194	3.1840282	106.5155	105.9030	7.128584	32.68195
1251	5.40439	3.1841150	106.2505	105.6396	7.128224	32.68068
1252	5.40669	3.1840218	105.9855	105.3762	7.127978	32.67751
1253	5.40884	3.1838975	105.7175	105.1098	7.127767	32.67414
1254	5.41129	3.1838664	105.4433	104.8373	7.127469	32.67153
1255	5.41399	3.1839904	105.1724	104.5680	7.127057	32.67045
1256	5.41675	3.1840834	104.9073	104.3044	7.126655	32.66896
1257	5.41925	3.1840895	104.6391	104.0379	7.126331	32.66672
1258	5.42170	3.1841391	104.3650	103.7654	7.125990	32.66504
1259	5.42425	3.1842011	104.0940	103.4960	7.125630	32.66339
1260	5.42650	3.1841699	103.8229	103.2265	7.125357	32.66098
1261	5.42861	3.1842319	103.5641	102.9693	7.125054	32.65977
1262	5.43026	3.1838407	103.2898	102.6967	7.125048	32.65385
1263	5.43136	3.1834123	103.0250	102.4334	7.125131	32.64804
1264	5.43171	3.1828349	102.7477	102.1578	7.125388	32.64128
1265	5.43181	3.1822328	102.4766	101.8883	7.125689	32.63448
1266	5.43161	3.1817424	102.2084	101.6218	7.125968	32.62924
1267	5.43116	3.1812583	101.9376	101.3525	7.126276	32.62431
1268	5.43081	3.1809541	101.6693	101.0859	7.126476	32.62133
1269	5.43021	3.1805321	101.3983	100.8165	7.126769	32.61725
1270	5.42961	3.1800790	101.1211	100.5410	7.127079	32.61283
1271	5.42876	3.1796819	100.8563	100.2777	7.127391	32.60927
1272	5.42791	3.1794150	100.5848	100.0079	7.127634	32.60720
1273	5.42680	3.1789248	100.3078	99.7325	7.128027	32.60284
1274	5.42490	3.1781989	100.0397	99.4660	7.128646	32.59657
1275	5.42210	3.1775909	99.7778	99.2056	7.129316	32.59252
1276	5.41875	3.1769892	99.4976	98.9272	7.130052	32.58908
1277	5.41439	3.1763503	99.2356	98.6667	7.130934	32.58617
1278	5.40924	3.1754572	98.9646	98.3973	7.132052	32.58116
1279	5.40374	3.1742046	98.6933	98.1277	7.133406	32.57240
1280	5.39839	3.1732374	98.4285	97.8644	7.134590	32.56674
1281	5.39259	3.1721772	98.1572	97.5947	7.135880	32.56045
1282	5.38724	3.1708197	97.8830	97.3221	7.137272	32.55035
1283	5.38229	3.1698219	97.6151	97.0558	7.138422	32.54394
1284	5.37749	3.1685020	97.3469	96.7893	7.139726	32.53372
1285	5.37334	3.1674734	97.0759	96.5199	7.140792	32.52618
1286	5.36999	3.1668352	96.7988	96.2444	7.141549	32.52231
1287	5.36699	3.1664449	96.5366	95.9838	7.142130	32.52091
1288	5.36464	3.1656334	96.2597	95.7085	7.142854	32.51409
1289	5.36259	3.1648467	95.9915	95.4420	7.143527	32.50726
1290	5.36074	3.1642397	95.7202	95.1723	7.144078	32.50228
1291	5.35905	3.1635832	95.4434	94.8971	7.144637	32.49660
1292	5.35765	3.1631311	95.1811	94.6364	7.145049	32.49294
1293	5.35655	3.1620474	94.9039	94.3609	7.145761	32.48182
1294	5.35460	3.1609949	94.6298	94.0883	7.146563	32.47187
1295	5.35175	3.1598187	94.3679	93.8280	7.147546	32.46138
1296	5.34790	3.1584323	94.0968	93.5585	7.148767	32.44946
1297	5.34401	3.1572626	93.8256	93.2890	7.149880	32.44006
1298	5.34076	3.1561179	93.5576	93.0225	7.150897	32.43031
1299	5.33776	3.1550971	93.2866	92.7532	7.151816	32.42173
1300	5.33477	3.1542990	93.0123	92.4805	7.152616	32.41568
1301	5.33207	3.1535073	92.7414	92.2112	7.153376	32.40942
1302	5.33037	3.1523383	92.4671	91.9385	7.154210	32.39789
1303	5.32908	3.1512870	92.1959	91.6689	7.154931	32.38732
1304	5.32853	3.1504460	91.9310	91.4056	7.155444	32.37841
1305	5.32972	3.1499328	91.6600	91.1362	7.155561	32.37155
1306	5.33222	3.1497596	91.3886	90.8664	7.155330	32.36730
1307	5.33467	3.1491289	91.1147	90.5941	7.155350	32.35789
1308	5.33672	3.1481397	90.8465	90.3276	7.155613	32.34480
1309	5.33781	3.1477503	90.5633	90.0460	7.155675	32.33945
1310	5.33841	3.1474535	90.2645	89.7490	7.155751	32.33564
1311	5.33821	3.1441907	89.9875	89.4736	7.157515	32.29886
1312	5.33766	3.1425722	89.7224	89.2101	7.158444	32.28111
1313	5.33921	3.1426029	89.4483	88.9376	7.158225	32.28011
1314	5.34281	3.1413367	89.1803	88.6712	7.158438	32.26238
1315	5.34700	3.1405707	88.9029	88.3954	7.158308	32.24977
1316	5.35165	3.1408423	88.6349	88.1290	7.157566	32.24852
1317	5.35595	3.1405396	88.3578	87.8535	7.157175	32.24108
1318	5.35999	3.1396935	88.0866	87.5840	7.157106	32.22771
1319	5.36344	3.1390451	87.8154	87.3144	7.157008	32.21716
1320	5.36504	3.1382424	87.5444	87.0450	7.157227	32.20664
1321	5.36519	3.1373472	87.2793	86.7814	7.157680	32.19646
1322	5.36444	3.1364212	87.0081	86.5119	7.158264	32.18679
1323	5.36349	3.1357916	86.7370	86.2424	7.158715	32.18068
1324	5.36204	3.1352854	86.4689	85.9759	7.159163	32.17645
1325	5.36004	3.1345140	86.1979	85.7065	7.159824	32.16974
1326	5.35740	3.1337735	85.9298	85.4400	7.160550	32.16400
1327	5.35420	3.1329343	85.6465	85.1583	7.161400	32.15767
1328	5.35125	3.1318608	85.3785	84.8919	7.162343	32.14844
1329	5.34775	3.1311452	85.1134	84.6283	7.163165	32.14379
1330	5.34446	3.1313240	84.8393	84.3559	7.163483	32.14912
1331	5.34166	3.1304913	84.5621	84.0803	7.164279	32.14247
1332	5.33926	3.1294489	84.2878	83.8076	7.165136	32.13306
1333	5.33702	3.1289062	84.0168	83.5382	7.165707	32.12918
1334	5.33472	3.1285238	83.7455	83.2686	7.166198	32.12717
1335	5.33222	3.1274262	83.4746	82.9992	7.167098	32.11722
1336	5.32932	3.1259404	83.2032	82.7294	7.168257	32.10324
1337	5.32673	3.1248555	82.9262	82.4541	7.169163	32.09353
1338	5.32403	3.1239802	82.6610	82.1904	7.169970	32.08629
1339	5.32164	3.1226121	82.3900	81.9210	7.171002	32.07317
1340	5.31929	3.1209362	82.1159	81.6485	7.172194	32.05650
1341	5.31764	3.1195870	81.8326	81.3669	7.173121	32.04287
1342	5.31649	3.1189033	81.5675	81.1034	7.173628	32.03633
1343	5.31585	3.1181641	81.2901	80.8276	7.174100	32.02868
1344	5.31565	3.1176837	81.0192	80.5582	7.174377	32.02355
1345	5.31555	3.1173326	80.7511	80.2917	7.174572	32.01978
1346	5.31565	3.1169815	80.4738	80.0161	7.174741	32.01583
1347	5.31590	3.1166181	80.1875	79.7315	7.174897	32.01160
1348	5.31624	3.1165072	79.8952	79.4410	7.174905	32.01015
1349	5.31704	3.1155282	79.6269	79.1742	7.175321	31.99839
1350	5.31939	3.1159652	79.3586	78.9074	7.174781	32.00125
1351	5.32268	3.1159097	79.0753	78.6258	7.174382	31.99761
1352	5.32693	3.1154970	78.8072	78.3593	7.174054	31.98900
1353	5.33192	3.1153491	78.5363	78.0900	7.173488	31.98269
1354	5.33717	3.1149304	78.2681	77.8234	7.173035	31.97306
1355	5.34161	3.1143701	77.9938	77.5507	7.172760	31.96259
1356	5.34606	3.1139883	77.7199	77.2784	7.172390	31.95415
1357	5.35070	3.1138035	77.4457	77.0058	7.171888	31.94775
1358	5.35550	3.1132740	77.1746	76.7363	7.171551	31.93730
1359	5.36014	3.1130092	76.9093	76.4726	7.171092	31.93000
1360	5.36544	3.1128676	76.6350	76.1998	7.170484	31.92348
1361	5.37409	3.1129782	76.3702	75.9366	7.169313	31.91664
1362	5.38564	3.1135442	76.0870	75.6550	7.167527	31.91221
1363	5.39954	3.1142457	75.8128	75.3824	7.165370	31.90707
1364	5.41565	3.1145471	75.5446	75.1158	7.163145	31.89530
1365	5.43236	3.1150209	75.2766	74.8494	7.160752	31.88492
1366	5.44878	3.1152607	74.9992	74.5736	7.158522	31.87217
1367	5.46516	3.1155252	74.7310	74.3070	7.156286	31.85976
1368	5.48089	3.1155250	74.4599	74.0375	7.154273	31.84497
1369	5.49637	3.1156109	74.1890	73.7681	7.152247	31.83140
1370	5.51192	3.1153952	73.9145	73.4953	7.150374	31.81437
1371	5.52716	3.1151672	73.6435	73.2258	7.148546	31.79750
1372	5.54297	3.1152839	73.3692	72.9532	7.146465	31.78401
1373	5.55998	3.1153329	73.1013	72.6868	7.144266	31.76861
1374	5.57600	3.1154927	72.8271	72.4143	7.142137	31.75543
1375	5.59283	3.1156710	72.5558	72.1446	7.139896	31.74169
1376	5.60851	3.1156769	72.2786	71.8689	7.137892	31.72711
1377	5.62359	3.1157875	72.0136	71.6055	7.135911	31.71428
1378	5.63933	3.1161444	71.7364	71.3299	7.133716	31.70361
1379	5.65532	3.1162919	71.4559	71.0511	7.131600	31.69035
1380	5.67032	3.1164887	71.1880	70.7847	7.129587	31.67859
1381	5.68643	3.1167656	70.9198	70.5181	7.127390	31.66670
1382	5.70214	3.1168823	70.6488	70.2487	7.125329	31.65338
1383	5.71867	3.1175225	70.3747	69.9762	7.122892	31.64520
1384	5.74049	3.1191665	70.0972	69.7003	7.119258	31.64332
1385	5.76510	3.1205891	69.8169	69.4216	7.115391	31.63634
1386	5.78457	3.1219011	69.5429	69.1492	7.112235	31.63294
1387	5.80689	3.1230469	69.2718	68.8796	7.108810	31.62501
1388	5.83346	3.1242976	69.0006	68.6101	7.104795	31.61428
1389	5.86161	3.1265533	68.7201	68.3312	7.100062	31.61333
1390	5.89433	3.1285135	68.4550	68.0677	7.094913	31.60479
1391	5.92708	3.1303324	68.1872	67.8014	7.089840	31.59466
1392	5.95585	3.1325033	67.9127	67.5285	7.085091	31.59217
1393	5.98150	3.1336937	67.6387	67.2561	7.081247	31.58166
1394	6.00513	3.1350818	67.3675	66.9865	7.077557	31.57524
1395	6.02711	3.1357542	67.0963	66.7168	7.074448	31.56240
1396	6.04467	3.1366489	66.8190	66.4411	7.071779	31.55614
1397	6.06138	3.1375437	66.5540	66.1777	7.069219	31.55068
1398	6.07728	3.1382658	66.2769	65.9022	7.066850	31.54405
1399	6.09202	3.1391854	66.0057	65.6326	7.064526	31.54071
1400	6.10631	3.1397471	65.7344	65.3629	7.062445	31.53381
1401	6.11984	3.1402903	65.4543	65.0844	7.060468	31.52741
1402	6.13393	3.1407841	65.1798	64.8115	7.058447	31.51994
1403	6.14935	3.1418090	64.9088	64.5420	7.055990	31.51714
1404	6.16468	3.1427044	64.6375	64.2724	7.053612	31.51299
1405	6.18088	3.1439335	64.3604	63.9968	7.050957	31.51173
1406	6.19693	3.1444769	64.0924	63.7304	7.048672	31.50301
1407	6.21283	3.1452799	63.8180	63.4576	7.046273	31.49731
1408	6.22741	3.1467442	63.5438	63.1849	7.043704	31.50015
1409	6.24159	3.1470159	63.2757	62.9185	7.041794	31.49016
1410	6.25440	3.1474050	62.9926	62.6369	7.039996	31.48275
1411	6.26456	3.1479487	62.7272	62.3732	7.038450	31.47950
1412	6.27380	3.1481525	62.4533	62.1008	7.037191	31.47333
1413	6.28207	3.1485418	62.1788	61.8279	7.035958	31.47012
1414	6.28891	3.1487209	61.9109	61.5615	7.035010	31.46590
1415	6.29412	3.1487084	61.6242	61.2765	7.034363	31.46108
1416	6.29831	3.1488133	61.3591	61.0129	7.033783	31.45850
1417	6.30286	3.1488997	61.0850	60.7404	7.033168	31.45538
1418	6.30873	3.1491098	60.8140	60.4710	7.032326	31.45240
1419	6.31660	3.1493383	60.5365	60.1952	7.031226	31.44779
1420	6.32647	3.1498884	60.2596	59.9198	7.029716	31.44489
1421	6.33935	3.1505806	59.9881	59.6499	7.027760	31.44078
1422	6.35567	3.1512048	59.7111	59.3745	7.025413	31.43275
1423	6.37521	3.1520146	59.4307	59.0957	7.022573	31.42380
1424	6.39820	3.1542470	59.1564	58.8230	7.018591	31.42737
1425	6.42648	3.1551065	58.8793	58.5475	7.014650	31.41093
1426	6.45503	3.1568508	58.6081	58.2779	7.010234	31.40399
1427	6.48206	3.1577786	58.3308	58.0022	7.006421	31.38948
1428	6.50464	3.1586818	58.0535	57.7265	7.003172	31.37879
1429	6.52518	3.1595109	57.7792	57.4537	7.000215	31.36918
1430	6.54486	3.1599748	57.4991	57.1752	6.997550	31.35635
1431	6.56177	3.1605440	57.2248	56.9025	6.995174	31.34722
1432	6.57704	3.1609709	56.9598	56.6390	6.993074	31.33804
1433	6.59006	3.1611193	56.6946	56.3754	6.991391	31.32787
1434	6.60333	3.1614782	56.4082	56.0907	6.989571	31.31979
1435	6.61625	3.1621094	56.1370	55.8210	6.987660	31.31501
1436	6.62876	3.1627717	55.8659	55.5515	6.985785	31.31095
1437	6.64148	3.1630440	55.5886	55.2758	6.984079	31.30243
1438	6.65390	3.1635268	55.3143	55.0031	6.982307	31.29650
1439	6.66513	3.1640963	55.0370	54.7273	6.980637	31.29260
1440	6.67544	3.1644677	54.7629	54.4549	6.979180	31.28738
1441	6.68487	3.1653036	54.4918	54.1853	6.977600	31.28804
1442	6.69343	3.1656627	54.2114	53.9065	6.976365	31.28428
1443	6.70040	3.1656316	53.9369	53.6336	6.975520	31.27771
1444	6.70736	3.1663252	53.6690	53.3673	6.974316	31.27906
1445	6.71520	3.1666596	53.3947	53.0945	6.973182	31.27569
1446	6.72367	3.1670806	53.1115	52.8130	6.971929	31.27271
1447	6.73110	3.1673221	52.8432	52.5461	6.970893	31.26869
1448	6.73832	3.1672910	52.5661	52.2706	6.970016	31.26189
1449	6.74607	3.1675634	52.2888	51.9950	6.968926	31.25793
1450	6.75376	3.1676562	52.0175	51.7253	6.967931	31.25206
1451	6.76069	3.1681579	51.7433	51.4526	6.966830	31.25136
1452	6.76689	3.1683746	51.4721	51.1830	6.965957	31.24821
1453	6.77231	3.1686161	51.1978	50.9103	6.965168	31.24603
1454	6.77743	3.1688267	50.9237	50.6377	6.964432	31.24380
1455	6.78265	3.1689504	50.6555	50.3710	6.963726	31.24052
1456	6.78766	3.1690990	50.3721	50.0892	6.963033	31.23771
1457	6.79278	3.1693344	50.1009	49.8196	6.962284	31.23574
1458	6.79852	3.1695821	49.8267	49.5470	6.961454	31.23335
1459	6.80457	3.1693713	49.5493	49.2712	6.960812	31.22567
1460	6.81051	3.1696128	49.2659	48.9894	6.959960	31.22303
1461	6.81760	3.1698543	48.9948	48.7198	6.958968	31.21935
1462	6.82577	3.1697798	48.7206	48.4473	6.958000	31.21123
1463	6.83514	3.1702754	48.4403	48.1685	6.956605	31.20825
1464	6.84533	3.1706409	48.1751	47.9049	6.955173	31.20309
1465	6.85589	3.1711241	47.8980	47.6294	6.953639	31.19889
1466	6.86635	3.1712727	47.6236	47.3565	6.952282	31.19114
1467	6.87583	3.1715762	47.3465	47.0810	6.950970	31.18597
1468	6.88500	3.1715947	47.0691	46.8052	6.949836	31.17798
1469	6.89392	3.1718796	46.7948	46.5324	6.948602	31.17313
1470	6.90242	3.1721212	46.5205	46.2597	6.947441	31.16817
1471	6.91035	3.1725116	46.2495	45.9903	6.946276	31.16536
1472	6.91843	3.1725114	45.9754	45.7177	6.945284	31.15815
1473	6.92544	3.1729018	45.7010	45.4449	6.944233	31.15618
1474	6.93270	3.1730566	45.4237	45.1692	6.943266	31.15141
1475	6.93939	3.1733789	45.1493	44.8964	6.942287	31.14898
1476	6.94619	3.1734469	44.8752	44.6238	6.941420	31.14369
1477	6.95298	3.1736576	44.5979	44.3481	6.940483	31.13996
1478	6.95947	3.1737194	44.3237	44.0755	6.939657	31.13489
1479	6.96482	3.1738681	44.0496	43.8030	6.938927	31.13179
1480	6.97017	3.1739609	43.7751	43.5300	6.938225	31.12809
1481	6.97437	3.1742398	43.4977	43.2542	6.937571	31.12744
1482	6.97873	3.1744753	43.2297	42.9877	6.936919	31.12617
1483	6.98387	3.1747480	42.9495	42.7091	6.936154	31.12461
1484	6.98964	3.1748967	42.6752	42.4363	6.935374	31.12114
1485	6.99546	3.1750516	42.4009	42.1637	6.934585	31.11769
1486	7.00143	3.1754421	42.1296	41.8939	6.933662	31.11665
1487	7.00736	3.1754544	41.8525	41.6183	6.932929	31.11156
1488	7.01411	3.1758015	41.5813	41.3487	6.931933	31.10935
1489	7.02123	3.1759564	41.3038	41.0728	6.930986	31.10472
1490	7.02841	3.1761671	41.0295	40.8000	6.930005	31.10066
1491	7.03480	3.1761359	40.7554	40.5275	6.929237	31.09467
1492	7.04011	3.1760428	40.4840	40.2576	6.928633	31.08900
1493	7.04474	3.1760427	40.2037	39.9789	6.928065	31.08495
1494	7.04874	3.1759929	39.9266	39.7034	6.927596	31.08093
1495	7.05072	3.1755029	39.6583	39.4366	6.927589	31.07396
1496	7.05134	3.1750501	39.3811	39.1610	6.927728	31.06862
1497	7.05186	3.1746841	39.0886	38.8701	6.927837	31.06432
1498	7.05264	3.1750747	38.8112	38.5943	6.927547	31.06797
1499	7.05374	3.1743181	38.5400	38.3247	6.927777	31.05892
1500	7.05431	3.1744296	38.2628	38.0491	6.927647	31.05973
1501	7.05504	3.1740203	37.9886	37.7764	6.927752	31.05477
1502	7.05675	3.1741690	37.7051	37.4945	6.927465	31.05496
1503	7.05930	3.1739581	37.4309	37.2219	6.927253	31.05051
1504	7.06305	3.1740200	37.1566	36.9492	6.926762	31.04793
1505	7.06763	3.1739578	36.8853	36.6794	6.926230	31.04325
1506	7.07299	3.1738895	36.6109	36.4065	6.925606	31.03781
1507	7.08158	3.1743482	36.3337	36.1310	6.924334	31.03517
1508	7.09116	3.1748316	36.0534	35.8522	6.922930	31.03191
1509	7.10100	3.1756810	35.7883	35.5886	6.921318	31.03237
1510	7.11173	3.1761336	35.5047	35.3066	6.919790	31.02774
1511	7.12377	3.1765303	35.2277	35.0312	6.918132	31.02133
1512	7.13529	3.1769829	34.9564	34.7615	6.916510	31.01599
1513	7.14645	3.1774292	34.6822	34.4888	6.914936	31.01092
1514	7.15688	3.1777702	34.4017	34.2099	6.913501	31.00536
1515	7.16590	3.1777390	34.1306	33.9403	6.912418	30.99704
1516	7.17357	3.1783716	33.8564	33.6677	6.911177	30.99711
1517	7.18108	3.1788864	33.5699	33.3828	6.910013	30.99606
1518	7.18875	3.1794942	33.2895	33.1039	6.908785	30.99586
1519	7.19565	3.1795375	33.0243	32.8403	6.907924	30.99026
1520	7.20160	3.1799779	32.7501	32.5676	6.906986	30.98980
1521	7.20760	3.1797978	32.4696	32.2887	6.906341	30.98260
1522	7.21277	3.1802506	32.1984	32.0191	6.905492	30.98297
1523	7.21737	3.1801264	31.9240	31.7462	6.904990	30.97764
1524	7.22139	3.1803682	31.6498	31.4735	6.904382	30.97676
1525	7.22463	3.1798841	31.3726	31.1979	6.904218	30.96877
1526	7.22782	3.1801446	31.0952	30.9221	6.903701	30.96885
1527	7.23226	3.1802500	30.8242	30.6526	6.903108	30.96613
1528	7.23733	3.1806718	30.5436	30.3735	6.902286	30.96626
1529	7.24203	3.1807027	30.2695	30.1010	6.901698	30.96250
1530	7.24762	3.1809135	29.9920	29.8251	6.900915	30.95989
1531	7.25374	3.1807955	29.7239	29.5585	6.900227	30.95327
1532	7.26080	3.1807643	29.4464	29.2826	6.899384	30.94674
1533	7.26770	3.1809441	29.1662	29.0039	6.898458	30.94263
1534	7.27507	3.1808881	28.8918	28.7310	6.897589	30.93555
1535	7.28240	3.1806149	28.6023	28.4432	6.896830	30.92619
1536	7.28852	3.1814897	28.3190	28.1615	6.895665	30.93026
1537	7.29490	3.1814027	28.0446	27.8887	6.894931	30.92375
1538	7.30103	3.1816135	27.7704	27.6160	6.894085	30.92067
1539	7.30799	3.1817003	27.4871	27.3342	6.893198	30.91551
1540	7.31631	3.1818366	27.2098	27.0586	6.892123	30.90966
1541	7.32647	3.1820040	26.9354	26.7856	6.890812	30.90252
1542	7.33674	3.1821279	26.6610	26.5128	6.889509	30.89481
1543	7.34627	3.1820967	26.3868	26.2401	6.888369	30.88610
1544	7.35424	3.1818545	26.1064	25.9614	6.887520	30.87652
1545	7.36189	3.1820654	25.8351	25.6916	6.886491	30.87208
1546	7.36907	3.1820031	25.5578	25.4158	6.885650	30.86514
1547	7.37563	3.1820961	25.2835	25.1431	6.884811	30.86043
1548	7.38218	3.1823070	25.0032	24.8643	6.883915	30.85698
1549	7.38842	3.1823068	24.7350	24.5976	6.883158	30.85154
1550	7.39419	3.1823998	24.4577	24.3219	6.882413	30.84753
1551	7.39975	3.1824865	24.1773	24.0430	6.881697	30.84363
1552	7.40458	3.1824864	23.8938	23.7611	6.881110	30.83946
1553	7.40894	3.1825793	23.6255	23.4944	6.880536	30.83671
1554	7.41303	3.1827034	23.3484	23.2188	6.879979	30.83452
1555	7.41712	3.1830322	23.0709	22.9428	6.879324	30.83453
1556	7.42159	3.1833052	22.7967	22.6702	6.878652	30.83361
1557	7.42626	3.1831871	22.5194	22.3944	6.878140	30.82832
1558	7.43025	3.1830628	22.2450	22.1216	6.877714	30.82356
1559	7.43503	3.1834910	21.9769	21.8550	6.876930	30.82402
1560	7.44044	3.1837330	21.6964	21.5761	6.876159	30.82193
1561	7.44700	3.1837328	21.4221	21.3033	6.875364	30.81622
1562	7.45346	3.1839499	21.1479	21.0307	6.874479	30.81293
1563	7.46024	3.1839746	20.8676	20.7519	6.873647	30.80730
1564	7.46718	3.1841234	20.5901	20.4760	6.872737	30.80286
1565	7.47391	3.1840922	20.3128	20.2002	6.871938	30.79668
1566	7.48153	3.1840362	20.0386	19.9276	6.871044	30.78944
1567	7.48936	3.1841540	19.7581	19.6486	6.870042	30.78388
1568	7.49751	3.1841849	19.4899	19.3819	6.869043	30.77710
1569	7.50703	3.1842654	19.2094	19.1030	6.867856	30.76965
1570	7.51929	3.1843955	18.9321	18.8273	6.866318	30.76031
1571	7.53277	3.1845195	18.6608	18.5575	6.864637	30.74982
1572	7.54698	3.1846372	18.3926	18.2907	6.862871	30.73862
1573	7.56046	3.1846991	18.1093	18.0091	6.861220	30.72749
1574	7.57284	3.1849720	17.8290	17.7303	6.859601	30.71958
1575	7.58412	3.1849097	17.5485	17.4514	6.858274	30.70908
1576	7.59319	3.1848847	17.2681	17.1725	6.857194	30.70093
1577	7.60162	3.1848721	16.9968	16.9027	6.856185	30.69347
1578	7.60985	3.1849402	16.7132	16.6208	6.855162	30.68706
1579	7.61697	3.1850022	16.4421	16.3511	6.854275	30.68156
1580	7.62467	3.1850331	16.1678	16.0784	6.853333	30.67522
1581	7.63280	3.1851260	15.8965	15.8086	6.852311	30.66917
1582	7.64277	3.1851817	15.6131	15.5268	6.851086	30.66110
1583	7.65417	3.1853678	15.3450	15.2601	6.849629	30.65316
1584	7.66775	3.1851006	15.0615	14.9782	6.848127	30.63849
1585	7.68233	3.1851810	14.7871	14.7054	6.846341	30.62664
1586	7.69506	3.1855471	14.5097	14.4294	6.844641	30.61946
1587	7.70907	3.1856090	14.2416	14.1629	6.842933	30.60793
1588	7.72435	3.1858199	13.9703	13.8931	6.841004	30.59687
1589	7.74091	3.1860307	13.6898	13.6142	6.838923	30.58470
1590	7.75816	3.1860615	13.4096	13.3355	6.836845	30.57002
1591	7.77383	3.1860923	13.1351	13.0625	6.834956	30.55673
1592	7.78776	3.1859306	12.8547	12.7837	6.833365	30.54294
1593	7.80101	3.1859428	12.5775	12.5080	6.831775	30.53160
1594	7.81436	3.1860916	12.2971	12.2292	6.830109	30.52162
1595	7.82634	3.1859735	12.0289	11.9625	6.828731	30.51000
1596	7.83748	3.1862713	11.7545	11.6896	6.827261	30.50355
1597	7.84761	3.1863332	11.4832	11.4198	6.826020	30.49547
1598	7.85758	3.1865441	11.2150	11.1531	6.824729	30.48912
1599	7.86767	3.1869103	10.9254	10.8651	6.823353	30.48432
1600	7.87855	3.1872765	10.6542	10.5954	6.821883	30.47882
1601	7.89129	3.1877918	10.3769	10.3197	6.820122	30.47328
1602	7.90670	3.1878847	10.0994	10.0437	6.818242	30.46095
1603	7.92604	3.1879403	9.8189	9.7648	6.815913	30.44481
1604	7.94784	3.1882443	9.5508	9.4981	6.813177	30.42917
1605	7.97120	3.1882440	9.2734	9.2223	6.810400	30.40898
1606	7.99286	3.1883058	8.9961	8.9465	6.807796	30.39093
1607	8.01491	3.1882993	8.7248	8.6767	6.805179	30.37185
1608	8.03457	3.1880319	8.4443	8.3977	6.802967	30.35210
1609	8.05637	3.1880627	8.1670	8.1219	6.800364	30.33366
1610	8.07712	3.1881555	7.8896	7.8462	6.797859	30.31680
1611	8.09933	3.1885154	7.6183	7.5763	6.795060	30.30151
1612	8.12154	3.1885772	7.3563	7.3157	6.792399	30.28309
1613	8.14179	3.1883658	7.0911	7.0520	6.790097	30.26351
1614	8.16504	3.1886077	6.8319	6.7943	6.787234	30.24611
1615	8.18842	3.1889987	6.5607	6.5246	6.784289	30.23020
1616	8.21154	3.1893089	6.3016	6.2669	6.781413	30.21367
1617	8.23981	3.1895198	6.0394	6.0062	6.777976	30.19169
1618	8.27755	3.1875752	5.7713	5.7396	6.774410	30.13907
1619	8.32111	3.1155926	5.5151	5.4848	6.802036	29.35091
1620	8.37467	3.1882137	5.2561	5.2271	6.762677	30.06289
1621	8.43072	3.1889087	4.9907	4.9633	6.755771	30.02247
1622	8.49327	3.1886099	4.7258	4.6998	6.748562	29.96628
1623	8.56493	3.1883606	4.4485	4.4240	6.740272	29.90306
1624	8.64841	3.1879311	4.1894	4.1663	6.730695	29.82820
1625	8.73006	3.1879923	3.9271	3.9055	6.721130	29.76023
1626	8.81297	3.1882087	3.6528	3.6327	6.711367	29.69307
1627	8.90946	3.1880834	3.3997	3.3810	6.700198	29.61130
1628	9.00203	3.1878402	3.1256	3.1084	6.689558	29.53194
1629	9.08032	3.1880815	2.8602	2.8445	6.680381	29.46967
1630	9.15893	3.1878011	2.5982	2.5839	6.671411	29.40202
1631	9.25110	3.1880175	2.3756	2.3625	6.660678	29.32851
1632	9.34410	3.1853152	2.1652	2.1533	6.651132	29.22500
1633	9.43142	3.1829491	1.9641	1.9533	6.642106	29.12997
1634	9.51495	3.1786106	1.7660	1.7563	6.634369	29.01847
1635	9.58961	3.1734375	1.5709	1.5623	6.628004	28.90616
1636	9.66459	3.1681809	1.3668	1.3593	6.621637	28.79319
1637	9.73577	3.1638441	1.1716	1.1652	6.615315	28.69290
1638	9.79698	3.1552338	0.9735	0.9681	6.611932	28.55810
1639	9.86220	3.1461196	0.7755	0.7712	6.608288	28.41557
1640	9.93229	3.1378980	0.5805	0.5773	6.603700	28.27865
1641	10.01842	3.1146443	0.3914	0.3892	6.603520	27.98048
1642	10.13971	3.0957172	0.2297	0.2284	6.597442	27.69985
1643	10.25180	3.1591395	0.0988	0.0982	6.558504	28.24041
1644	10.03827	3.1647076	0.0379	0.0377	6.580425	28.46258
1645	9.54263	3.1755395	0.0470	0.0468	6.632474	28.96581
1646	9.16123	3.1785517	0.0501	0.0498	6.675124	29.30681
1647	8.75063	3.1807399	0.0470	0.0468	6.721886	29.66974
1648	8.39445	3.1835303	0.0500	0.0497	6.762376	29.99939
1649	8.14254	1.4062612	0.0439	0.0437	7.619140	12.36663
1650	8.00298	0.6515422	0.0470	0.0468	7.994479	5.42069
1651	7.96071	0.6748856	0.0470	0.0468	7.991567	5.63584
1652	7.95502	0.6492284	0.0441	0.0439	8.004444	5.40746
1653	7.95582	0.5644107	0.0411	0.0409	8.043211	4.65499
1654	7.95901	0.5067407	0.0380	0.0377	8.068899	4.14834
1655	7.96305	0.4390519	0.0472	0.0469	8.098778	3.55974
1656	7.96758	0.4405533	0.0472	0.0469	8.097235	3.57225
1657	7.97247	0.4773676	0.0442	0.0440	8.079667	3.89078
1658	7.98056	0.5228047	0.0441	0.0439	8.057515	4.28626
1659	7.98610	0.5405894	0.0380	0.0378	8.048377	4.44149
1660	7.98945	0.5310378	0.0441	0.0438	8.052092	4.35729
1661	7.99195	0.4985337	0.0442	0.0440	8.066377	4.07284
1662	7.99579	0.4643344	0.0440	0.0437	8.081119	3.77509
1663	8.00053	0.4269582	0.0442	0.0440	8.097047	3.45170
1664	8.00399	0.3909800	0.0443	0.0440	8.112505	3.14268
1665	8.00676	0.3587807	0.0501	0.0499	8.126329	2.86805
1666	8.01081	0.3351166	0.0382	0.0380	8.136049	2.66727
1667	8.01469	0.3888146	0.0411	0.0408	8.111413	3.12322
1668	8.01933	0.4365756	0.0441	0.0438	8.089129	3.53269
1669	8.02658	0.4091970	0.0411	0.0409	8.100019	3.29660
1670	8.03105	0.3762192	0.0443	0.0440	8.113881	3.01434
1671	8.03148	0.3426771	0.0442	0.0440	8.128696	2.72959
1672	8.02951	0.3002246	0.0411	0.0409	8.147816	2.37240
1673	8.02700	0.2710748	0.0443	0.0441	8.161086	2.12928
1674	8.02402	0.2561446	0.0383	0.0381	8.168187	2.00556
1675	8.02141	0.2452704	0.0443	0.0441	8.173433	1.91578
1676	8.01869	0.2265145	0.0443	0.0440	8.182106	1.76147
1677	8.01704	0.2207641	0.0382	0.0380	8.184919	1.71436
1678	8.01693	0.2147865	0.0474	0.0471	8.187522	1.66541
1679	8.01656	0.2071395	0.0444	0.0442	8.190894	1.60293
1680	8.01715	0.1949370	0.0473	0.0471	8.196027	1.50349
1681	8.01890	0.1839564	0.0444	0.0442	8.200386	1.41432
1682	8.02013	0.1787127	0.0473	0.0471	8.202386	1.37185
1683	8.02050	0.1776593	0.0445	0.0442	8.202762	1.36332
1684	8.02002	0.1795864	0.0352	0.0350	8.202033	1.37892
1685	8.01906	0.1819591	0.0444	0.0442	8.201209	1.39815
1686	8.01874	0.1764231	0.0413	0.0411	8.203637	1.35340
1687	8.01864	0.1693745	0.0475	0.0472	8.206664	1.29656
1688	8.01842	0.1639232	0.0444	0.0442	8.209026	1.25270
1689	8.01805	0.1636978	0.0443	0.0441	8.209196	1.25090
1690	8.01757	0.1660419	0.0444	0.0442	8.208294	1.26977
1691	8.01720	0.1660319	0.0445	0.0442	8.208372	1.26970
1692	8.01656	0.1929744	0.0445	0.0442	8.196985	1.48757
1693	8.01576	0.1986114	0.0383	0.0381	8.194722	1.53344
