Scan Count	Temperature [ITS-90, deg C]	Conductivity [S/m]	Pressure, Strain Gauge [db]	Depth [salt water, m]	Oxygen Saturation, Weiss [ml/l]	Salinity, Practical [PSU]
1	19.40536	0.0026932	-0.0401	-0.0399	6.426448	0.02009
2	19.40441	0.0027179	-0.0431	-0.0429	6.426567	0.02021
3	19.40390	0.0027117	-0.0431	-0.0429	6.426634	0.02018
4	19.40119	0.0027086	-0.0401	-0.0399	6.426985	0.02016
5	19.39710	0.0027117	-0.0432	-0.0429	6.427516	0.02018
6	19.39008	0.0027086	-0.0431	-0.0429	6.428427	0.02016
7	19.38285	0.0027086	-0.0431	-0.0429	6.429365	0.02016
8	19.37298	0.0027179	-0.0431	-0.0429	6.430644	0.02020
9	19.36371	0.0027086	-0.0401	-0.0399	6.431850	0.02016
10	19.35640	0.0027024	-0.0340	-0.0338	6.432799	0.02013
11	19.35137	0.0026901	-0.0401	-0.0399	6.433456	0.02008
12	19.34553	0.0026808	-0.0370	-0.0368	6.434216	0.02003
13	19.34042	0.0026808	-0.0401	-0.0399	6.434880	0.02003
14	19.33465	0.0026623	-0.0401	-0.0399	6.435633	0.01995
15	19.33006	0.0026654	-0.0401	-0.0399	6.436230	0.01996
16	19.32597	0.0026530	-0.0401	-0.0399	6.436763	0.01990
17	19.32356	0.0026407	-0.0370	-0.0368	6.437078	0.01985
18	19.31897	0.0026284	-0.0431	-0.0429	6.437678	0.01979
19	19.31328	0.0026376	-0.0431	-0.0429	6.438416	0.01983
20	19.30905	0.0026314	-0.0401	-0.0399	6.438967	0.01980
21	19.30409	0.0026191	-0.0431	-0.0429	6.439615	0.01975
22	19.29731	0.0026407	-0.0401	-0.0399	6.440493	0.01984
23	19.29294	0.0026530	-0.0401	-0.0399	6.441060	0.01990
24	19.28638	0.0026993	-0.0462	-0.0459	6.441906	0.02011
25	19.28194	0.0027580	-0.0370	-0.0368	6.442474	0.02039
26	19.28004	0.0028691	-0.0401	-0.0399	6.442701	0.02090
27	19.27910	0.0029803	-0.0370	-0.0368	6.442805	0.02142
28	19.28055	0.0030111	-0.0401	-0.0399	6.442609	0.02157
29	19.28135	0.0030297	-0.0401	-0.0399	6.442502	0.02165
30	19.28267	0.0030297	-0.0370	-0.0368	6.442331	0.02165
31	19.28449	0.0030358	-0.0462	-0.0459	6.442093	0.02168
32	19.28762	0.0030204	-0.0370	-0.0368	6.441687	0.02161
33	19.29054	0.0030111	-0.0401	-0.0399	6.441310	0.02157
34	19.29309	0.0030019	-0.0431	-0.0429	6.440979	0.02152
35	19.29418	0.0030111	-0.0431	-0.0429	6.440835	0.02157
36	19.29622	0.0030019	-0.0401	-0.0399	6.440571	0.02152
37	19.29666	0.0030050	-0.0401	-0.0399	6.440514	0.02154
38	19.29746	0.0029926	-0.0431	-0.0429	6.440412	0.02148
39	19.29739	0.0029741	-0.0431	-0.0429	6.440424	0.02139
40	19.29535	0.0029741	-0.0370	-0.0368	6.440690	0.02139
41	19.28952	0.0029401	-0.0401	-0.0398	6.441455	0.02123
42	19.28500	0.0029185	-0.0401	-0.0399	6.442047	0.02113
43	19.28004	0.0029123	-0.0400	-0.0398	6.442693	0.02110
44	19.27108	0.0028938	-0.0431	-0.0429	6.443864	0.02102
45	19.26198	0.0028537	-0.0431	-0.0429	6.445057	0.02083
46	19.25907	0.0028413	-0.0431	-0.0429	6.445439	0.02077
47	19.25696	0.0028228	-0.0431	-0.0429	6.445717	0.02069
48	19.24197	0.0028136	-0.0370	-0.0368	6.447674	0.02064
49	19.22632	0.0027920	-0.0431	-0.0429	6.449718	0.02054
50	19.22152	0.0027611	-0.0431	-0.0429	6.450350	0.02040
51	19.22400	0.0027611	-0.0401	-0.0399	6.450027	0.02040
52	19.22974	0.0027364	-0.0340	-0.0338	6.449282	0.02028
53	19.23687	0.0027179	-0.0401	-0.0398	6.448355	0.02020
54	19.24386	0.0027024	-0.0370	-0.0368	6.447447	0.02013
55	19.25026	0.0026808	-0.0431	-0.0429	6.446615	0.02003
56	19.25412	0.0026808	-0.0400	-0.0398	6.446112	0.02003
57	19.25805	0.0026654	-0.0400	-0.0398	6.445603	0.01996
58	19.26053	0.0026438	-0.0370	-0.0368	6.445284	0.01986
59	19.26293	0.0026407	-0.0400	-0.0398	6.444971	0.01984
60	19.26657	0.0026376	-0.0400	-0.0398	6.444498	0.01983
61	19.26817	0.0026098	-0.0370	-0.0368	6.444294	0.01970
62	19.26897	0.0026098	-0.0370	-0.0368	6.444189	0.01970
63	19.27036	0.0025913	-0.0400	-0.0398	6.444012	0.01961
64	19.26919	0.0025913	-0.0400	-0.0398	6.444164	0.01961
65	19.26926	0.0025821	-0.0400	-0.0398	6.444156	0.01957
66	19.27021	0.0025728	-0.0400	-0.0398	6.444035	0.01953
67	19.27167	0.0025543	-0.0461	-0.0459	6.443848	0.01944
68	19.27371	0.0025388	-0.0400	-0.0398	6.443585	0.01937
69	19.27545	0.0025296	-0.0431	-0.0428	6.443359	0.01933
70	19.27647	0.0025203	-0.0400	-0.0398	6.443228	0.01929
71	19.27655	0.0025203	-0.0370	-0.0368	6.443218	0.01929
72	19.27728	0.0025141	-0.0431	-0.0428	6.443124	0.01926
73	19.27902	0.0025111	-0.0400	-0.0398	6.442897	0.01925
74	19.28055	0.0025049	-0.0400	-0.0398	6.442699	0.01922
75	19.15904	0.7210746	0.0331	0.0329	6.288074	4.52205
76	18.12123	2.9527800	0.1763	0.1753	5.804858	21.38641
77	17.11510	2.9828618	0.3256	0.3238	5.894050	22.16564
78	16.43218	3.0172019	0.4383	0.4359	5.951374	22.83037
79	15.96562	3.0288442	0.5297	0.5268	5.994462	23.19673
80	15.68255	3.0329291	0.6120	0.6086	6.021726	23.39732
81	15.51934	3.0356858	0.7034	0.6995	6.037397	23.51750
82	15.41458	3.0403701	0.8009	0.7965	6.046564	23.62005
83	15.34132	3.0391388	0.9136	0.9086	6.054413	23.65335
84	15.29808	3.0258790	0.9715	0.9661	6.063041	23.56541
85	15.33425	3.0372728	0.9775	0.9722	6.055727	23.64156
86	15.43201	3.0414375	0.9776	0.9722	6.044457	23.61871
87	15.52156	3.0448781	0.9684	0.9631	6.034283	23.59464
88	15.58978	3.0393376	0.9593	0.9540	6.029113	23.50674
89	15.62881	3.0356299	0.9563	0.9510	6.026323	23.45199
90	15.61095	3.0399412	0.9654	0.9601	6.026780	23.49931
91	15.55118	3.0507391	0.9746	0.9692	6.029442	23.62703
92	15.49659	3.0593682	0.9745	0.9692	6.032251	23.73349
93	15.45198	3.0664336	0.9593	0.9540	6.034538	23.82084
94	15.40958	3.0726600	0.9502	0.9449	6.036862	23.89986
95	15.37072	3.0758395	0.9410	0.9358	6.039788	23.95072
96	15.34106	3.0772122	0.9471	0.9419	6.042357	23.98054
97	15.32290	3.0798723	0.9715	0.9662	6.043352	24.01447
98	15.31551	3.0804363	0.9898	0.9844	6.043922	24.02382
99	15.32615	3.0744125	1.0020	0.9965	6.044758	23.96553
100	15.32945	3.0743941	0.9928	0.9874	6.044428	23.96336
101	15.32426	3.0831461	0.9776	0.9723	6.042175	24.04180
102	15.34853	3.0853967	0.9472	0.9419	6.039005	24.04637
103	15.36151	3.0797860	0.9410	0.9359	6.039471	23.99023
104	15.34866	3.0765075	0.9410	0.9359	6.041811	23.96987
105	15.33743	3.0759685	0.9532	0.9480	6.043120	23.97206
106	15.32971	3.0779722	0.9715	0.9662	6.043266	23.99398
107	15.32517	3.0810369	0.9746	0.9692	6.042753	24.02310
108	15.32576	3.0833056	0.9746	0.9692	6.041973	24.04226
109	15.32258	3.0813925	0.9624	0.9571	6.042902	24.02775
110	15.31097	3.0787998	0.9624	0.9571	6.044902	24.01251
111	15.29749	3.0788183	0.9654	0.9601	6.046263	24.02089
112	15.28642	3.0793455	0.9624	0.9571	6.047218	24.03219
113	15.27968	3.0805592	0.9716	0.9662	6.047515	24.04675
114	15.27793	3.0825886	0.9776	0.9722	6.047046	24.06529
115	15.28467	3.0850354	0.9807	0.9753	6.045585	24.08225
116	15.29691	3.0854892	0.9807	0.9753	6.044200	24.07867
117	15.30190	3.0805713	0.9624	0.9571	6.045258	24.03329
118	15.29594	3.0776294	0.9441	0.9389	6.046798	24.01161
119	15.28797	3.0762201	0.9563	0.9511	6.048055	24.00433
120	15.28175	3.0760915	0.9563	0.9511	6.048727	24.00701
121	15.27748	3.0777092	0.9533	0.9481	6.048645	24.02355
122	15.27968	3.0800137	0.9654	0.9601	6.047689	24.04205
123	15.28609	3.0806818	0.9594	0.9541	6.046826	24.04389
124	15.28441	3.0793455	0.9746	0.9693	6.047422	24.03341
125	15.27424	3.0782485	0.9746	0.9692	6.048802	24.03016
126	15.26362	3.0795480	0.9776	0.9723	6.049466	24.04784
127	15.25637	3.0815955	0.9898	0.9844	6.049549	24.06991
128	15.25476	3.0838950	0.9746	0.9692	6.048980	24.09072
129	15.25942	3.0851952	0.9655	0.9601	6.048094	24.09907
130	15.26246	3.0839930	0.9503	0.9450	6.048168	24.08686
131	15.26052	3.0817978	0.9411	0.9359	6.049064	24.06913
132	15.25721	3.0795480	0.9441	0.9390	6.050116	24.05176
133	15.25573	3.0780649	0.9502	0.9450	6.050740	24.03989
134	15.26233	3.0787880	0.9715	0.9662	6.049839	24.04208
135	15.27813	3.0824721	0.9868	0.9814	6.047064	24.06416
136	15.30780	3.0888082	0.9959	0.9905	6.042043	24.10058
137	15.33678	3.0906183	0.9868	0.9814	6.038536	24.09844
138	15.33652	3.0906674	0.9716	0.9663	6.038547	24.09902
139	15.33944	3.0917600	0.9594	0.9541	6.037905	24.10664
140	15.36352	3.0906181	0.9442	0.9390	6.035834	24.08211
141	15.37598	3.0816679	0.9442	0.9390	6.037409	23.99759
142	15.37670	3.0752574	0.9502	0.9450	6.039368	23.94209
143	15.37241	3.0747857	0.9686	0.9632	6.039951	23.94064
144	15.37962	3.0829064	0.9868	0.9814	6.036650	24.00601
145	15.40366	3.0890343	0.9899	0.9844	6.032281	24.04400
146	15.40412	3.0905747	0.9869	0.9814	6.031748	24.05696
147	15.39190	3.0911457	0.9777	0.9724	6.032801	24.06931
148	15.38436	3.0906179	0.9624	0.9572	6.033728	24.06938
149	15.37995	3.0878809	0.9472	0.9420	6.035041	24.04856
150	15.37598	3.0843415	0.9472	0.9420	6.036562	24.02056
151	15.37566	3.0818273	0.9503	0.9450	6.037392	23.99916
152	15.37767	3.0811774	0.9656	0.9602	6.037394	23.99235
153	15.38066	3.0828819	0.9747	0.9693	6.036552	24.00517
154	15.38586	3.0880956	0.9899	0.9844	6.034376	24.04679
155	15.39469	3.0929320	0.9930	0.9875	6.031953	24.08295
156	15.40282	3.0942827	0.9869	0.9814	6.030706	24.08960
157	15.40821	3.0931161	0.9838	0.9784	6.030531	24.07629
158	15.41283	3.0924039	0.9747	0.9693	6.030291	24.06736
159	15.41718	3.0946080	0.9656	0.9602	6.029154	24.08363
160	15.42290	3.0969909	0.9625	0.9572	6.027825	24.10060
161	15.42915	3.0966100	0.9473	0.9421	6.027316	24.09352
162	15.43494	3.0903227	0.9473	0.9421	6.028718	24.03603
163	15.43572	3.0838932	0.9625	0.9572	6.030670	23.98038
164	15.43350	3.0877147	0.9777	0.9724	6.029686	24.01451
165	15.43923	3.0979245	0.9808	0.9754	6.025885	24.09864
166	15.44613	3.1002285	0.9869	0.9815	6.024463	24.11420
167	15.49470	3.1005782	0.9839	0.9785	6.019465	24.08756
168	15.58350	3.0952512	0.9687	0.9633	6.012216	23.98798
169	15.65086	3.0885286	0.9717	0.9664	6.007560	23.88983
170	15.68019	3.0851051	0.9717	0.9663	6.005685	23.84295
171	15.68000	3.0863626	0.9687	0.9633	6.005313	23.85379
172	15.67764	3.0927266	0.9687	0.9633	6.003564	23.90949
173	15.68354	3.0963679	0.9778	0.9724	6.001837	23.93698
174	15.67875	3.0978914	0.9687	0.9633	6.001840	23.95287
175	15.66971	3.0984567	0.9626	0.9573	6.002569	23.96316
176	15.67620	3.0964847	0.9595	0.9543	6.002535	23.94242
177	15.68196	3.0932054	0.9626	0.9573	6.002981	23.91096
178	15.67784	3.0904062	0.9748	0.9694	6.004268	23.88958
179	15.67253	3.0935800	0.9717	0.9664	6.003809	23.91985
180	15.67869	3.0993720	0.9809	0.9755	6.001385	23.96554
181	15.69513	3.1020512	0.9717	0.9664	5.998904	23.97845
182	15.70746	3.1018974	0.9717	0.9664	5.997719	23.96969
183	15.73441	3.0973686	0.9657	0.9603	5.996434	23.91481
184	15.76139	3.0921671	0.9778	0.9725	5.995354	23.85428
185	15.78097	3.0931737	0.9748	0.9694	5.993084	23.85108
186	15.80035	3.0987195	0.9718	0.9664	5.989427	23.88660
187	15.82442	3.1016074	0.9657	0.9604	5.986131	23.89667
188	15.83936	3.1004703	0.9626	0.9573	5.984994	23.87803
189	15.84640	3.0941616	0.9535	0.9483	5.986244	23.82021
190	15.85279	3.0900240	0.9566	0.9513	5.986887	23.78125
191	15.84633	3.0901345	0.9718	0.9664	5.987497	23.78604
192	15.83133	3.0960716	0.9840	0.9786	5.987157	23.84547
193	15.83225	3.0991616	0.9840	0.9786	5.986108	23.87117
194	15.83133	3.1009620	0.9962	0.9907	5.985642	23.88703
195	15.83317	3.1020806	0.9840	0.9786	5.985112	23.89543
196	15.84403	3.1021665	0.9749	0.9695	5.984003	23.88963
197	15.86141	3.0999416	0.9718	0.9665	5.982960	23.86029
198	15.86490	3.0966302	0.9596	0.9544	5.983636	23.83008
199	15.85865	3.0958073	0.9627	0.9574	5.984514	23.82684
200	15.86306	3.0970725	0.9658	0.9605	5.983683	23.83494
201	15.87742	3.0996649	0.9627	0.9574	5.981451	23.84833
202	15.89719	3.1015268	0.9749	0.9696	5.978908	23.85227
203	15.91275	3.1022518	0.9719	0.9665	5.977136	23.84909
204	15.92093	3.1025775	0.9749	0.9696	5.976222	23.84695
205	15.92522	3.1030815	0.9689	0.9635	5.975640	23.84865
206	15.92819	3.1036962	0.9719	0.9666	5.975155	23.85209
207	15.93063	3.1041696	0.9750	0.9696	5.974767	23.85464
208	15.93274	3.1044462	0.9719	0.9666	5.974472	23.85572
209	15.93452	3.1044647	0.9658	0.9605	5.974289	23.85481
210	15.93551	3.1045507	0.9628	0.9575	5.974164	23.85494
211	15.93564	3.1048213	0.9689	0.9636	5.974067	23.85715
212	15.93479	3.1048766	0.9750	0.9696	5.974136	23.85814
213	15.93248	3.1052332	0.9841	0.9787	5.974255	23.86254
214	15.92845	3.1063463	0.9872	0.9818	5.974313	23.87440
215	15.92469	3.1072688	0.9781	0.9727	5.974402	23.88448
216	15.92152	3.1076809	0.9720	0.9666	5.974589	23.88988
217	15.91691	3.1076256	0.9689	0.9636	5.975065	23.89218
218	15.91203	3.1062665	0.9567	0.9515	5.975969	23.88359
219	15.90075	3.1022274	0.9507	0.9455	5.978337	23.85609
220	15.87030	3.0993148	0.9598	0.9545	5.982268	23.84963
221	15.83909	3.1001323	0.9599	0.9546	5.985125	23.87532
222	15.82659	3.1030518	0.9720	0.9666	5.985467	23.90765
223	15.82949	3.1057569	0.9781	0.9727	5.984341	23.92890
224	15.82942	3.1069438	0.9751	0.9697	5.983980	23.93903
225	15.81995	3.1072391	0.9812	0.9758	5.984832	23.94725
226	15.81331	3.1071777	0.9781	0.9728	5.985513	23.95073
227	15.82692	3.1063780	0.9812	0.9758	5.984404	23.93572
228	15.84522	3.1046439	0.9721	0.9668	5.983119	23.90997
229	15.84877	3.1021050	0.9690	0.9637	5.983550	23.88626
230	15.83857	3.1005625	0.9629	0.9576	5.985044	23.87929
231	15.82758	3.1015766	0.9690	0.9637	5.985826	23.89451
232	15.82771	3.1046379	0.9721	0.9668	5.984865	23.92046
233	15.84601	3.1070605	0.9782	0.9729	5.982292	23.93003
234	15.86866	3.1068819	0.9721	0.9668	5.980093	23.91488
235	15.87926	3.1024612	0.9721	0.9668	5.980403	23.87096
236	15.87333	3.0973918	0.9722	0.9668	5.982560	23.83149
237	15.86010	3.0989278	0.9783	0.9729	5.983405	23.85247
238	15.85634	3.1046991	0.9813	0.9759	5.981994	23.90374
239	15.85871	3.1064700	0.9752	0.9699	5.981210	23.91736
240	15.87478	3.1055290	0.9661	0.9608	5.979901	23.89970
241	15.92555	3.0988841	0.9570	0.9517	5.976901	23.81287
242	15.95657	3.0859794	0.9539	0.9487	5.977787	23.68502
243	15.97698	3.0770894	0.9570	0.9517	5.978488	23.59767
244	15.97427	3.0873473	0.9570	0.9517	5.975603	23.68607
245	15.97586	3.0958675	0.9570	0.9518	5.972826	23.75724
246	15.97249	3.0990434	0.9570	0.9518	5.972184	23.78615
247	15.98934	3.0972985	0.9692	0.9639	5.971046	23.76131
248	16.01453	3.0896971	0.9784	0.9730	5.970877	23.68200
249	16.02995	3.0844821	0.9967	0.9912	5.970944	23.62876
250	16.03776	3.0854327	0.9936	0.9881	5.969876	23.63216
251	16.04285	3.0912864	0.9936	0.9882	5.967576	23.67860
252	16.04835	3.0971136	0.9815	0.9761	5.965245	23.72458
253	16.05007	3.0995157	0.9662	0.9609	5.964338	23.74386
254	16.04802	3.0924589	0.9450	0.9398	5.966703	23.68545
255	16.04484	3.0804903	0.9541	0.9488	5.970687	23.58622
256	16.03769	3.0727088	0.9571	0.9519	5.973783	23.52473
257	16.02174	3.0827896	0.9724	0.9670	5.972279	23.61933
258	16.01328	3.0931100	0.9968	0.9913	5.969955	23.71160
259	16.00984	3.0995162	0.9998	0.9943	5.968330	23.76784
260	16.04113	3.0988523	0.9876	0.9822	5.965428	23.74357
261	16.07862	3.0892300	0.9724	0.9671	5.964654	23.64001
262	16.09997	3.0804162	0.9602	0.9550	5.965230	23.55301
263	16.11244	3.0743250	0.9481	0.9429	5.965852	23.49431
264	16.11204	3.0679938	0.9420	0.9368	5.967825	23.44118
265	16.09380	3.0694325	0.9572	0.9519	5.969200	23.46403
266	16.07246	3.0811214	0.9816	0.9762	5.967747	23.57521
267	16.06829	3.0873525	0.9877	0.9823	5.966255	23.63028
268	16.06358	3.0937910	0.9938	0.9884	5.964751	23.68744
269	16.08571	3.0904942	0.9816	0.9762	5.963564	23.64647
270	16.11131	3.0796866	0.9756	0.9702	5.964326	23.54016
271	16.12391	3.0752806	0.9664	0.9611	5.964420	23.49560
272	16.11980	3.0720711	0.9665	0.9612	5.965808	23.47097
273	16.11356	3.0752500	0.9634	0.9581	5.965457	23.50144
274	16.11210	3.0823472	0.9665	0.9612	5.963435	23.56213
275	16.11111	3.0853032	0.9725	0.9672	5.962630	23.58764
276	16.10342	3.0852174	0.9817	0.9763	5.963420	23.59147
277	16.09552	3.0838682	0.9909	0.9854	5.964616	23.58475
278	16.09228	3.0852175	1.0000	0.9945	5.964526	23.59805
279	16.09579	3.0880885	0.9970	0.9915	5.963300	23.62020
280	16.10375	3.0894630	0.9848	0.9794	5.962090	23.62708
281	16.10985	3.0868552	0.9666	0.9612	5.962281	23.60148
282	16.11237	3.0810291	0.9605	0.9552	5.963811	23.55086
283	16.11277	3.0755686	0.9452	0.9400	5.965439	23.50460
284	16.11330	3.0718324	0.9422	0.9370	5.966527	23.47279
285	16.10468	3.0734982	0.9514	0.9461	5.966876	23.49191
286	16.09241	3.0808576	0.9697	0.9643	5.965846	23.56120
287	16.09075	3.0863278	0.9849	0.9795	5.964338	23.60832
288	16.09082	3.0914333	0.9971	0.9916	5.962771	23.65137
289	16.11230	3.0924889	0.9910	0.9856	5.960318	23.64754
290	16.13998	3.0866524	0.9849	0.9795	5.959356	23.58195
291	16.15897	3.0788832	0.9697	0.9644	5.959841	23.50531
292	16.16382	3.0745205	0.9575	0.9523	5.960689	23.46573
293	16.14987	3.0720096	0.9606	0.9553	5.962839	23.45278
294	16.13719	3.0761749	0.9606	0.9553	5.962828	23.49532
295	16.13805	3.0813537	0.9637	0.9584	5.961163	23.53845
296	16.14024	3.0837328	0.9667	0.9614	5.960220	23.55720
297	16.13911	3.0832851	0.9789	0.9736	5.960468	23.55409
298	16.13686	3.0811760	0.9820	0.9766	5.961336	23.53765
299	16.13520	3.0803055	0.9972	0.9918	5.961766	23.53129
300	16.13314	3.0819669	0.9911	0.9857	5.961463	23.54650
301	16.13354	3.0841928	0.9820	0.9766	5.960745	23.56503
302	16.13712	3.0828682	0.9668	0.9615	5.960793	23.55175
303	16.13898	3.0772349	0.9608	0.9555	5.962327	23.50320
304	16.13301	3.0707545	0.9608	0.9555	5.964898	23.45212
305	16.12265	3.0702648	0.9699	0.9646	5.966076	23.45408
306	16.11748	3.0765611	0.9821	0.9767	5.964668	23.51018
307	16.11602	3.0841317	0.9974	0.9919	5.962501	23.57486
308	16.11708	3.0882601	0.9882	0.9828	5.961135	23.60904
309	16.14203	3.0867628	0.9882	0.9828	5.959118	23.58167
310	16.16103	3.0788648	0.9731	0.9677	5.959642	23.50394
311	16.16940	3.0727688	0.9579	0.9526	5.960668	23.44771
312	16.16548	3.0674363	0.9426	0.9374	5.962682	23.40513
313	16.15385	3.0652885	0.9457	0.9405	5.964492	23.39387
314	16.14296	3.0709381	0.9548	0.9496	5.963852	23.44782
315	16.14117	3.0783134	0.9792	0.9738	5.961781	23.51099
316	16.13520	3.0824328	0.9914	0.9859	5.961117	23.54921
317	16.13692	3.0845669	0.9914	0.9860	5.960295	23.56618
318	16.15146	3.0794533	0.9853	0.9799	5.960412	23.51452
319	16.15578	3.0732772	0.9884	0.9830	5.961866	23.45998
320	16.15418	3.0711951	0.9762	0.9708	5.962659	23.44339
321	16.15060	3.0692115	0.9732	0.9678	5.963620	23.42879
322	16.14655	3.0690646	0.9671	0.9618	5.964067	23.42993
323	16.14250	3.0710483	0.9580	0.9527	5.963864	23.44902
324	16.14110	3.0739572	0.9611	0.9558	5.963116	23.47434
325	16.14110	3.0757460	0.9702	0.9648	5.962570	23.48940
326	16.13878	3.0763893	0.9824	0.9770	5.962605	23.49618
327	16.13526	3.0767938	0.9916	0.9861	5.962831	23.50166
328	16.13148	3.0775230	0.9916	0.9861	5.962984	23.51003
329	16.12849	3.0785158	0.9946	0.9892	5.962978	23.52016
330	16.12551	3.0788652	0.9733	0.9679	5.963167	23.52487
331	16.12325	3.0774066	0.9673	0.9620	5.963836	23.51391
332	16.12219	3.0742576	0.9551	0.9498	5.964903	23.48800
333	16.11821	3.0690710	0.9551	0.9498	5.966883	23.44663
334	16.10739	3.0680550	0.9703	0.9650	5.968269	23.44442
335	16.09778	3.0710487	0.9764	0.9711	5.968311	23.47531
336	16.09506	3.0766349	0.9887	0.9832	5.966873	23.52401
337	16.09135	3.0803856	0.9917	0.9862	5.966096	23.55784
338	16.08684	3.0817344	0.9948	0.9893	5.966131	23.57188
339	16.09645	3.0776214	0.9857	0.9803	5.966433	23.53151
340	16.09910	3.0712263	0.9766	0.9712	5.968124	23.47603
341	16.09652	3.0677430	0.9674	0.9621	5.969446	23.44818
342	16.10434	3.0664210	0.9613	0.9561	5.969072	23.43244
343	16.11244	3.0693343	0.9644	0.9591	5.967376	23.45224
344	16.11940	3.0739268	0.9766	0.9712	5.965281	23.48684
345	16.12279	3.0764140	0.9675	0.9622	5.964186	23.50581
346	16.12099	3.0775599	0.9827	0.9773	5.964014	23.51652
347	16.11761	3.0766224	0.9980	0.9925	5.964636	23.51061
348	16.11927	3.0746925	0.9888	0.9834	5.965061	23.49337
349	16.12099	3.0738656	0.9828	0.9774	5.965142	23.48539
350	16.12006	3.0735287	0.9828	0.9774	5.965337	23.48310
351	16.11900	3.0720772	0.9645	0.9592	5.965886	23.47149
352	16.11628	3.0689792	0.9645	0.9592	5.967102	23.44699
353	16.11323	3.0669472	0.9737	0.9683	5.968026	23.43166
354	16.11177	3.0693588	0.9859	0.9805	5.967435	23.45283
355	16.11190	3.0747784	0.9890	0.9835	5.965766	23.49843
356	16.11376	3.0779582	0.9890	0.9836	5.964611	23.52414
357	16.11370	3.0769962	0.9829	0.9775	5.964911	23.51607
358	16.11091	3.0726652	0.9768	0.9715	5.966511	23.48121
359	16.10540	3.0685753	0.9707	0.9654	5.968308	23.44998
360	16.09632	3.0668556	0.9829	0.9775	5.969738	23.44082
361	16.08883	3.0684531	0.9830	0.9776	5.969995	23.45869
362	16.08843	3.0724205	0.9860	0.9806	5.968821	23.49238
363	16.09605	3.0758016	0.9800	0.9746	5.967029	23.51640
364	16.10229	3.0759179	0.9708	0.9655	5.966374	23.51371
365	16.10162	3.0709630	0.9647	0.9594	5.967954	23.47233
366	16.09466	3.0637840	0.9678	0.9624	5.970842	23.41590
367	16.08266	3.0624384	0.9678	0.9625	5.972448	23.41160
368	16.07392	3.0670088	0.9861	0.9807	5.971922	23.45528
369	16.07246	3.0751892	0.9983	0.9928	5.969563	23.52514
370	16.06901	3.0790435	0.9953	0.9898	5.968726	23.55970
371	16.07915	3.0776399	0.9862	0.9808	5.968147	23.54188
372	16.09559	3.0700569	0.9679	0.9626	5.968831	23.46824
373	16.10109	3.0623465	0.9557	0.9505	5.970640	23.40002
374	16.10726	3.0559145	0.9588	0.9535	5.971991	23.34221
375	16.10892	3.0559756	0.9679	0.9626	5.971808	23.34175
376	16.10793	3.0650564	0.9862	0.9808	5.969132	23.41884
377	16.10521	3.0708160	0.9832	0.9778	5.967643	23.46898
378	16.09579	3.0745457	0.9893	0.9839	5.967440	23.50596
379	16.09625	3.0744906	0.9802	0.9748	5.967410	23.50523
380	16.10348	3.0670697	0.9772	0.9718	5.968959	23.43841
381	16.10295	3.0607258	0.9772	0.9719	5.970951	23.38526
382	16.10481	3.0595273	0.9742	0.9689	5.971132	23.37408
383	16.10879	3.0644140	0.9742	0.9688	5.969243	23.41292
384	16.11237	3.0684223	0.9650	0.9597	5.967662	23.44459
385	16.11317	3.0677612	0.9620	0.9567	5.967784	23.43856
386	16.11144	3.0611048	0.9621	0.9568	5.969989	23.38349
387	16.10839	3.0564951	0.9773	0.9719	5.971702	23.34644
388	16.10481	3.0600592	0.9865	0.9810	5.970970	23.37856
389	16.10229	3.0703874	1.0078	1.0022	5.968064	23.46707
390	16.09851	3.0756300	1.0048	0.9993	5.966838	23.51350
391	16.09990	3.0766226	0.9896	0.9841	5.966396	23.52105
392	16.10839	3.0706017	0.9652	0.9599	5.967392	23.46530
393	16.11210	3.0608724	0.9439	0.9387	5.969994	23.38115
394	16.11297	3.0521872	0.9409	0.9357	5.972561	23.30749
395	16.11124	3.0483030	0.9470	0.9418	5.973920	23.27579
396	16.10746	3.0568924	0.9653	0.9600	5.971673	23.35033
397	16.10395	3.0663047	0.9867	0.9812	5.969147	23.43169
398	16.09122	3.0723531	0.9989	0.9934	5.968565	23.49016
399	16.08770	3.0740497	1.0019	0.9964	5.968396	23.50654
400	16.09287	3.0720408	1.0111	1.0055	5.968496	23.48655
401	16.09751	3.0714957	0.9989	0.9934	5.968201	23.47923
402	16.10196	3.0703201	0.9867	0.9813	5.968118	23.46671
403	16.10514	3.0640898	0.9624	0.9571	5.969705	23.41233
404	16.10587	3.0582923	0.9472	0.9420	5.971404	23.36306
405	16.10169	3.0524622	0.9350	0.9299	5.973602	23.31640
406	16.09042	3.0500375	0.9563	0.9511	5.975468	23.30255
407	16.08306	3.0600900	0.9838	0.9784	5.973127	23.39157
408	16.07617	3.0710979	1.0082	1.0026	5.970446	23.48844
409	16.06802	3.0780506	1.0051	0.9996	5.969129	23.55191
410	16.08034	3.0743866	1.0021	0.9966	5.969024	23.51372
411	16.09320	3.0623833	0.9808	0.9754	5.971415	23.40495
412	16.09957	3.0571370	0.9686	0.9633	5.972385	23.35701
413	16.09857	3.0518331	0.9626	0.9573	5.974105	23.31291
414	16.09221	3.0552791	0.9626	0.9573	5.973687	23.34567
415	16.08850	3.0637535	0.9717	0.9664	5.971465	23.41926
416	16.08618	3.0659255	0.9839	0.9785	5.971032	23.43893
417	16.08293	3.0662744	0.9931	0.9877	5.971249	23.44378
418	16.08406	3.0612519	0.9870	0.9816	5.972673	23.40078
419	16.08286	3.0588855	0.9871	0.9816	5.973516	23.38153
420	16.08061	3.0578585	0.9779	0.9726	5.974054	23.37419
421	16.07909	3.0593441	0.9719	0.9665	5.973752	23.38761
422	16.07889	3.0606098	0.9719	0.9665	5.973384	23.39840
423	16.07962	3.0608422	0.9750	0.9696	5.973241	23.39993
424	16.08054	3.0604447	0.9810	0.9756	5.973270	23.39603
425	16.08114	3.0610440	0.9902	0.9847	5.973027	23.40073
426	16.08160	3.0640900	0.9903	0.9848	5.972049	23.42614
427	16.08187	3.0690408	0.9902	0.9848	5.970508	23.46774
428	16.07895	3.0687899	0.9811	0.9758	5.970875	23.46734
429	16.07902	3.0614538	0.9689	0.9636	5.973113	23.40544
430	16.07928	3.0548148	0.9659	0.9606	5.975118	23.34932
431	16.07796	3.0527985	0.9721	0.9667	5.975867	23.33310
432	16.07816	3.0595398	0.9721	0.9667	5.973784	23.38981
433	16.07763	3.0644327	0.9782	0.9728	5.972340	23.43137
434	16.07412	3.0650568	0.9874	0.9819	5.972499	23.43870
435	16.07299	3.0637231	0.9843	0.9789	5.973020	23.42811
436	16.07451	3.0607566	0.9904	0.9850	5.973776	23.40220
437	16.07451	3.0593747	0.9813	0.9759	5.974198	23.39055
438	16.07451	3.0581459	0.9813	0.9759	5.974575	23.38019
439	16.07511	3.0582314	0.9844	0.9790	5.974489	23.38056
440	16.07571	3.0605365	0.9875	0.9820	5.973724	23.39964
441	16.07643	3.0635456	0.9905	0.9850	5.972731	23.42459
442	16.07769	3.0647692	0.9814	0.9760	5.972231	23.43417
443	16.07842	3.0619736	0.9814	0.9760	5.973013	23.41017
444	16.07875	3.0576262	0.9692	0.9639	5.974311	23.37333
445	16.07836	3.0551875	0.9784	0.9730	5.975096	23.35300
446	16.07783	3.0566482	0.9845	0.9791	5.974702	23.36562
447	16.07756	3.0604692	0.9876	0.9822	5.973560	23.39799
448	16.07690	3.0645061	0.9876	0.9821	5.972390	23.43242
449	16.07537	3.0653811	0.9754	0.9700	5.972274	23.44069
450	16.07325	3.0633438	0.9724	0.9671	5.973109	23.42476
451	16.07319	3.0590996	0.9633	0.9580	5.974415	23.38901
452	16.07246	3.0551876	0.9755	0.9701	5.975685	23.35645
453	16.07067	3.0551510	0.9816	0.9762	5.975875	23.35719
454	16.06988	3.0577975	0.9817	0.9763	5.975144	23.37997
455	16.07014	3.0611481	0.9908	0.9854	5.974092	23.40807
456	16.06921	3.0635763	0.9939	0.9884	5.973441	23.42909
457	16.06696	3.0632521	0.9878	0.9823	5.973765	23.42768
458	16.06656	3.0604754	0.9847	0.9793	5.974654	23.40450
459	16.06663	3.0588123	0.9695	0.9642	5.975157	23.39044
460	16.06550	3.0576569	0.9665	0.9612	5.975623	23.38135
461	16.06345	3.0550166	0.9635	0.9582	5.976636	23.36029
462	16.05948	3.0529514	0.9727	0.9673	5.977666	23.34520
463	16.05305	3.0542040	0.9788	0.9734	5.977923	23.35953
464	16.04855	3.0591304	0.9849	0.9795	5.976863	23.40372
465	16.04795	3.0624693	0.9880	0.9825	5.975899	23.43225
466	16.04769	3.0634297	0.9941	0.9886	5.975632	23.44050
467	16.04914	3.0632645	0.9941	0.9886	5.975537	23.43825
468	16.04961	3.0613684	0.9911	0.9856	5.976072	23.42198
469	16.04603	3.0591916	0.9850	0.9796	5.977096	23.40572
470	16.04074	3.0587820	0.9819	0.9766	5.977750	23.40537
471	16.03994	3.0584885	0.9728	0.9675	5.977919	23.40337
472	16.04219	3.0564041	0.9637	0.9584	5.978333	23.38446
473	16.04511	3.0531348	0.9638	0.9585	5.979044	23.35517
474	16.04842	3.0510823	0.9607	0.9554	5.979343	23.33592
475	16.05093	3.0542040	0.9760	0.9706	5.978135	23.36077
476	16.05206	3.0588553	0.9912	0.9858	5.976597	23.39934
477	16.05159	3.0623225	1.0034	0.9979	5.975581	23.42886
478	16.05007	3.0631728	0.9974	0.9919	5.975473	23.43693
479	16.05193	3.0623531	0.9974	0.9919	5.975539	23.42893
480	16.05418	3.0605978	0.9852	0.9798	5.975852	23.41280
481	16.05292	3.0576815	0.9731	0.9677	5.976871	23.38894
482	16.05053	3.0524628	0.9640	0.9587	5.978708	23.34632
483	16.05113	3.0476992	0.9609	0.9556	5.980108	23.30580
484	16.05338	3.0459044	0.9639	0.9586	5.980433	23.28935
485	16.05219	3.0506486	0.9823	0.9769	5.979099	23.33005
486	16.05020	3.0571314	0.9945	0.9890	5.977311	23.38589
487	16.04822	3.0620106	1.0006	0.9951	5.976014	23.42822
488	16.04603	3.0646471	1.0006	0.9951	5.975424	23.45175
489	16.04842	3.0632645	0.9885	0.9830	5.975610	23.43868
490	16.05232	3.0547845	0.9763	0.9709	5.977818	23.36485
491	16.05212	3.0466674	0.9641	0.9588	5.980325	23.29652
492	16.05219	3.0402846	0.9703	0.9649	5.982274	23.24267
493	16.05272	3.0466064	0.9855	0.9801	5.980284	23.29565
494	16.05034	3.0563490	0.9947	0.9892	5.977537	23.37921
495	16.04120	3.0639681	0.9977	0.9922	5.976114	23.44886
496	16.03710	3.0630200	0.9947	0.9892	5.976814	23.44328
497	16.03749	3.0526156	0.9826	0.9772	5.979964	23.35524
498	16.03557	3.0482183	0.9856	0.9802	5.981504	23.31927
499	16.03233	3.0478459	0.9765	0.9711	5.981943	23.31803
500	16.02823	3.0498366	0.9674	0.9620	5.981742	23.33723
501	16.02624	3.0518338	0.9613	0.9560	5.981328	23.35525
502	16.02432	3.0513635	0.9583	0.9530	5.981664	23.35240
503	16.02188	3.0483039	0.9553	0.9500	5.982848	23.32802
504	16.01982	3.0460268	0.9675	0.9622	5.983752	23.31000
505	16.01718	3.0466861	0.9857	0.9803	5.983814	23.31711
506	16.01440	3.0453249	1.0102	1.0046	5.984510	23.30724
507	16.00957	3.0350775	1.0741	1.0682	5.988141	23.22358
508	15.99225	3.0324082	1.1595	1.1531	5.990699	23.21113
509	15.97520	3.0422193	1.2326	1.2259	5.989393	23.30389
510	15.95875	3.0495931	1.3149	1.3077	5.988773	23.37582
511	15.93696	3.0442089	1.4094	1.4016	5.992616	23.34306
512	15.92337	3.0303191	1.5251	1.5168	5.998264	23.23356
513	15.90233	3.0201396	1.6623	1.6531	6.003524	23.15974
514	15.84522	3.0044212	1.8025	1.7926	6.014151	23.05997
515	15.78208	2.9894973	1.9579	1.9471	6.025179	22.97019
516	15.72438	2.9829364	2.1011	2.0896	6.033087	22.94794
517	15.67587	2.9793706	2.2413	2.2289	6.039143	22.94573
518	15.63535	2.9780151	2.3967	2.3835	6.043702	22.95764
519	15.59827	2.9782395	2.5368	2.5229	6.047421	22.98101
520	15.55928	2.9798743	2.6861	2.6714	6.050896	23.01754
521	15.51758	2.9835684	2.8293	2.8138	6.054000	23.07325
522	15.46715	2.9889006	2.9817	2.9653	6.057482	23.14818
523	15.41764	2.9962077	3.1249	3.1078	6.060245	23.23963
524	15.37553	3.0065276	3.2682	3.2502	6.061288	23.35274
525	15.33159	3.0210402	3.4266	3.4077	6.061179	23.50317
526	15.26938	3.0389390	3.5850	3.5653	6.061843	23.69409
527	15.20302	3.0679731	3.7648	3.7441	6.059348	23.98424
528	15.13407	3.0948267	3.9506	3.9289	6.057767	24.25841
529	15.06578	3.1104649	4.1609	4.1380	6.059681	24.43612
530	14.99903	3.1236799	4.3682	4.3441	6.062199	24.59248
531	14.93888	3.1305115	4.5845	4.5592	6.066097	24.68966
532	14.88326	3.1346887	4.8008	4.7744	6.070393	24.76113
533	14.82376	3.1458909	5.0202	4.9926	6.072797	24.89662
534	14.71990	3.1641780	5.2365	5.2077	6.077376	25.12313
535	14.60339	3.1717256	5.4620	5.4319	6.086738	25.26463
536	14.50842	3.1768668	5.6753	5.6440	6.094707	25.37163
537	14.43399	3.1797709	5.9160	5.8834	6.101331	25.44584
538	14.37651	3.1817138	6.1354	6.1016	6.106553	25.50067
539	14.33235	3.1828997	6.3822	6.3470	6.110669	25.54014
540	14.29731	3.1851722	6.6168	6.5803	6.113494	25.58332
541	14.24822	3.1889111	6.8636	6.8258	6.117265	25.64889
542	14.19003	3.1929564	7.1256	7.0863	6.121865	25.72339
543	14.13495	3.1953934	7.3755	7.3349	6.126689	25.78169
544	14.07919	3.1998771	7.6192	7.5772	6.130894	25.85887
545	14.01947	3.2042761	7.8691	7.8257	6.135534	25.93817
546	13.94450	3.2151427	8.1189	8.0742	6.139542	26.08597
547	13.84667	3.2218695	8.3597	8.3136	6.147296	26.21272
548	13.74327	3.2251015	8.6095	8.5620	6.156822	26.31235
549	13.64847	3.2290772	8.8654	8.8165	6.165222	26.41327
550	13.56002	3.2314252	9.1213	9.0710	6.173539	26.49548
551	13.48200	3.2344483	9.3773	9.3256	6.180555	26.57690
552	13.41453	3.2379783	9.6363	9.5832	6.186308	26.65586
553	13.34511	3.2415348	9.9106	9.8559	6.192258	26.73669
554	13.25355	3.2467753	10.1696	10.1135	6.199917	26.84877
555	13.15111	3.2510305	10.4407	10.3831	6.209056	26.95999
556	13.04623	3.2560015	10.7026	10.6436	6.218207	27.08008
557	12.94554	3.2588394	10.9739	10.9133	6.227692	27.17808
558	12.84730	3.2674192	11.2238	11.1618	6.234875	27.32790
559	12.74293	3.2766227	11.4766	11.4133	6.242467	27.48869
560	12.63705	3.2829026	11.7173	11.6526	6.251268	27.62421
561	12.54798	3.2878293	11.9550	11.8890	6.258806	27.73543
562	12.47833	3.2902940	12.1957	12.1283	6.265209	27.80972
563	12.43262	3.2918726	12.4425	12.3738	6.269432	27.85822
564	12.40273	3.2938224	12.6771	12.6071	6.271858	27.89856
565	12.37901	3.2966344	12.9331	12.8616	6.273319	27.94245
566	12.35824	3.2983397	13.1798	13.1070	6.274877	27.97382
567	12.33026	3.2988435	13.4267	13.3525	6.277635	27.99930
568	12.29962	3.2990704	13.6674	13.5919	6.280775	28.02420
569	12.27395	3.3000462	13.9172	13.8403	6.283119	28.05247
570	12.25157	3.3003298	14.1701	14.0918	6.285373	28.07179
571	12.22498	3.3011546	14.4016	14.3220	6.287870	28.09939
572	12.19550	3.3021937	14.6576	14.5766	6.290594	28.13120
573	12.16627	3.3022633	14.9014	14.8190	6.293651	28.15371
574	12.12901	3.3013762	15.1482	15.0644	6.297915	28.17327
575	12.08384	3.3012635	15.4041	15.3189	6.302729	28.20614
576	12.04015	3.3011255	15.6509	15.5643	6.307403	28.23771
577	12.00780	3.3003644	15.9008	15.8128	6.311113	28.25486
578	11.98045	3.3012522	16.1415	16.0521	6.313681	28.28389
579	11.95376	3.3017876	16.3944	16.3037	6.316311	28.30910
580	11.92543	3.3019769	16.6412	16.5491	6.319246	28.33230
581	11.89678	3.3018199	16.8879	16.7945	6.322347	28.35248
582	11.86691	3.3012034	17.1408	17.0460	6.325753	28.36924
583	11.82742	3.2996430	17.3876	17.2914	6.330542	28.38437
584	11.78009	3.2990395	17.6527	17.5550	6.335808	28.41461
585	11.73089	3.2983794	17.9117	17.8125	6.341303	28.44580
586	11.67842	3.2983486	18.1615	18.0609	6.346914	28.48558
587	11.62877	3.2973047	18.4114	18.3095	6.352617	28.51359
588	11.57357	3.2972425	18.6582	18.5549	6.358546	28.55533
589	11.51006	3.2959598	18.9111	18.8064	6.365842	28.59185
590	11.44427	3.2942183	19.1457	19.0396	6.373573	28.62583
591	11.38069	3.2927978	19.4046	19.2971	6.380957	28.66126
592	11.32215	3.2909688	19.6423	19.5335	6.387971	28.68894
593	11.25083	3.2858097	19.8861	19.7759	6.397672	28.69440
594	11.14591	3.2821674	20.1329	20.0213	6.410448	28.74074
595	11.01129	3.2785585	20.3827	20.2698	6.426484	28.81083
596	10.82465	3.2679452	20.6356	20.5212	6.451056	28.85380
597	10.53240	3.2604277	20.8824	20.7666	6.486194	29.01111
598	10.22688	3.2576564	21.1292	21.0120	6.521169	29.22801
599	9.97449	3.2585359	21.3821	21.2636	6.548952	29.44100
600	9.79759	3.2588134	21.6258	21.5059	6.568659	29.58828
601	9.67176	3.2574120	21.8727	21.7514	6.583403	29.67759
602	9.57404	3.2566053	22.1408	22.0180	6.594767	29.75009
603	9.49580	3.2547405	22.3845	22.2604	6.604406	29.79599
604	9.42535	3.2527195	22.6344	22.5088	6.613253	29.83397
605	9.36185	3.2524699	22.8873	22.7603	6.620568	29.88426
606	9.30220	3.2511689	23.1493	23.0209	6.627909	29.92075
607	9.23495	3.2490237	23.3870	23.2572	6.636494	29.95509
608	9.16238	3.2479048	23.6429	23.5117	6.645259	30.00448
609	9.09258	3.2458604	23.8958	23.7631	6.654128	30.04221
610	9.02399	3.2457361	24.1487	24.0146	6.662037	30.09872
611	8.96737	3.2454616	24.4016	24.2661	6.668653	30.14373
612	8.92347	3.2448369	24.6575	24.5206	6.673970	30.17443
613	8.88250	3.2435056	24.9073	24.7690	6.679268	30.19541
614	8.83227	3.2426685	25.1511	25.0114	6.685420	30.22940
615	8.77196	3.2387693	25.3949	25.2538	6.694102	30.24043
616	8.70404	3.2344473	25.6447	25.5022	6.703871	30.25357
617	8.63423	3.2327808	25.9006	25.7567	6.712700	30.29589
618	8.56320	3.2315766	26.1505	26.0052	6.721481	30.34419
619	8.48944	3.2306223	26.3942	26.2475	6.730485	30.39759
620	8.40914	3.2279707	26.6471	26.4990	6.741035	30.43908
621	8.30206	3.2208296	26.8909	26.7414	6.756784	30.45690
622	8.17349	3.2169599	27.1407	26.9899	6.773628	30.52775
623	8.05749	3.2121762	27.3997	27.2473	6.789480	30.57833
624	7.96417	3.2115357	27.6527	27.4989	6.800793	30.65306
625	7.88391	3.2083173	27.9085	27.7533	6.811785	30.68930
626	7.81150	3.2068427	28.1766	28.0199	6.821062	30.73723
627	7.74937	3.2050758	28.4387	28.2805	6.829272	30.77312
628	7.68962	3.2047716	28.6947	28.5351	6.836528	30.82258
629	7.62736	3.2001933	28.9535	28.7925	6.846108	30.82880
630	7.56700	3.1979054	29.2095	29.0470	6.854404	30.85780
631	7.51214	3.1977257	29.4624	29.2984	6.861056	30.90453
632	7.46387	3.1964766	29.7244	29.5590	6.867435	30.93402
633	7.42678	3.1965641	29.9743	29.8075	6.871845	30.96794
634	7.38811	3.1937922	30.2333	30.0650	6.877815	30.97262
635	7.34575	3.1925498	30.4893	30.3195	6.883506	30.99704
636	7.31448	3.1941536	30.7452	30.5740	6.886503	31.04219
637	7.29124	3.1954717	31.0041	30.8315	6.888672	31.07711
638	7.27377	3.1940734	31.2479	31.0739	6.891452	31.07764
639	7.24747	3.1897180	31.5038	31.3284	6.896723	31.05422
640	7.21481	3.1886562	31.7506	31.5737	6.901180	31.07200
641	7.18307	3.1863463	32.0158	31.8374	6.906135	31.07550
642	7.15276	3.1835529	32.2655	32.0858	6.911157	31.07250
643	7.11585	3.1808908	32.5123	32.3312	6.916921	31.07684
644	7.07523	3.1789306	32.7682	32.5856	6.922804	31.09212
645	7.03974	3.1787077	33.0243	32.8402	6.927226	31.12161
646	7.00710	3.1781002	33.2802	33.0947	6.931494	31.14440
647	6.98133	3.1779827	33.5392	33.3522	6.934689	31.16632
648	6.96638	3.1777720	33.7950	33.6066	6.936617	31.17746
649	6.95610	3.1778900	34.0572	33.8673	6.937815	31.18793
650	6.94603	3.1777724	34.3161	34.1248	6.939103	31.19566
651	6.93757	3.1771150	34.5721	34.3793	6.940460	31.19607
652	6.93062	3.1762903	34.8524	34.6580	6.941716	31.19328
653	6.92305	3.1762594	35.1144	34.9185	6.942659	31.19969
654	6.91149	3.1773761	35.3825	35.1851	6.943526	31.22221
655	6.90133	3.1779221	35.6445	35.4456	6.944501	31.23725
656	6.89614	3.1782262	35.9126	35.7122	6.944989	31.24515
657	6.88868	3.1786172	36.1656	35.9638	6.945711	31.25607
658	6.87718	3.1795914	36.4124	36.2092	6.946639	31.27703
659	6.86496	3.1801625	36.6774	36.4727	6.947854	31.29425
660	6.85548	3.1805598	36.9212	36.7151	6.948818	31.30710
661	6.84559	3.1808950	37.1740	36.9665	6.949864	31.31965
662	6.83969	3.1811372	37.4361	37.2271	6.950470	31.32755
663	6.83431	3.1819503	37.6860	37.4756	6.950730	31.34121
664	6.82758	3.1826145	37.9480	37.7361	6.951229	31.35448
665	6.81900	3.1833782	38.1979	37.9845	6.951905	31.37053
666	6.81289	3.1835025	38.4630	38.2481	6.952593	31.37734
667	6.80994	3.1832357	38.7554	38.5389	6.953090	31.37699
668	6.81000	3.1825282	39.0723	38.8539	6.953439	31.36908
669	6.80824	3.1853838	39.3222	39.1024	6.952251	31.40173
670	6.80296	3.1840492	39.5811	39.3599	6.953557	31.39187
671	6.79846	3.1846825	39.8493	39.6265	6.953799	31.40278
672	6.79924	3.1855642	40.1174	39.8931	6.953275	31.41157
673	6.79593	3.1857444	40.3855	40.1597	6.953595	31.41644
674	6.79123	3.1885391	40.6415	40.4142	6.952794	31.45114
675	6.78125	3.1893902	40.9217	40.6929	6.953596	31.46946
676	6.76766	3.1897632	41.2021	40.9716	6.955074	31.48587
677	6.76503	3.1939264	41.4580	41.2261	6.953342	31.53368
678	6.77205	3.1967921	41.7200	41.4866	6.951076	31.55842
679	6.77923	3.1981040	41.9790	41.7442	6.949560	31.56603
680	6.78719	3.1995033	42.2381	42.0017	6.947906	31.57388
681	6.79262	3.1996899	42.5031	42.2653	6.947160	31.57080
682	6.79660	3.2002061	42.7621	42.5227	6.946427	31.57266
683	6.79707	3.1999947	43.0180	42.7773	6.946480	31.56980
684	6.79629	3.2003120	43.2831	43.0408	6.946423	31.57386
685	6.79267	3.2002873	43.5512	43.3074	6.946881	31.57679
686	6.78637	3.2000822	43.8225	43.5771	6.947754	31.58023
687	6.77727	3.2009718	44.0692	43.8224	6.948426	31.59821
688	6.76012	3.2000826	44.3313	44.0830	6.950957	31.60417
689	6.74127	3.2003628	44.5872	44.3375	6.953117	31.62449
690	6.72795	3.1999960	44.8492	44.5980	6.954925	31.63264
691	6.71732	3.1999029	45.1235	44.8707	6.956271	31.64130
692	6.70922	3.1999653	45.3824	45.1282	6.957232	31.64935
693	6.70318	3.2001209	45.6536	45.3978	6.957896	31.65650
694	6.69735	3.2003014	45.9187	45.6614	6.958522	31.66374
695	6.69281	3.2002020	46.1777	45.9189	6.959129	31.66672
696	6.68910	3.2001462	46.4520	46.1916	6.959615	31.66941
697	6.68451	3.2002521	46.7109	46.4491	6.960127	31.67469
698	6.67724	3.1999350	46.9730	46.7096	6.961176	31.67782
699	6.66796	3.1998108	47.2411	46.9762	6.962374	31.68491
700	6.66059	3.2001468	47.5062	47.2398	6.963111	31.69529
701	6.65147	3.2001470	47.7774	47.5094	6.964228	31.70361
702	6.64184	3.2007256	48.0334	47.7639	6.965121	31.71876
703	6.63252	3.2011239	48.2862	48.0154	6.966065	31.73165
704	6.62541	3.2013978	48.5666	48.2941	6.966801	31.74112
705	6.62536	3.2021008	48.8408	48.5667	6.966463	31.74876
706	6.62500	3.2022876	49.1151	48.8394	6.966420	31.75101
707	6.62377	3.2031089	49.3680	49.0909	6.966167	31.76106
708	6.62114	3.2036939	49.6270	49.3484	6.966201	31.76980
709	6.62093	3.2039678	49.8951	49.6150	6.966096	31.77287
710	6.62655	3.2049759	50.1662	49.8846	6.964915	31.77861
711	6.63381	3.2061398	50.4283	50.1451	6.963457	31.78452
712	6.63669	3.2077272	50.6995	50.4147	6.962322	31.79914
713	6.63618	3.2101244	50.9676	50.6814	6.961197	31.82582
714	6.62974	3.2122919	51.2297	50.9419	6.960908	31.85548
715	6.62135	3.2135753	51.5068	51.2175	6.961296	31.87727
716	6.61234	3.2142234	51.7690	51.4781	6.962075	31.89266
717	6.60343	3.2145912	52.0432	51.7508	6.962980	31.90487
718	6.59890	3.2147720	52.3053	52.0113	6.963447	31.91096
719	6.59571	3.2154824	52.5856	52.2900	6.963487	31.92162
720	6.59036	3.2164360	52.8538	52.5567	6.963668	31.93697
721	6.58368	3.2179818	53.1402	52.8414	6.963717	31.96008
722	6.57771	3.2193221	53.4175	53.1171	6.963780	31.98028
723	6.57211	3.2204258	53.6886	53.3867	6.963916	31.99754
724	6.56645	3.2210681	53.9507	53.6473	6.964289	32.00978
725	6.56193	3.2219911	54.2127	53.9078	6.964384	32.02405
726	6.55889	3.2225775	54.4900	54.1835	6.964466	32.03322
727	6.55663	3.2229767	54.7582	54.4501	6.964547	32.03961
728	6.55812	3.2238063	55.0172	54.7076	6.963957	32.04722
729	6.56115	3.2245174	55.2914	54.9803	6.963239	32.05208
730	6.56295	3.2251351	55.5505	55.2378	6.962718	32.05707
731	6.56270	3.2264578	55.8215	55.5073	6.962094	32.07175
732	6.56105	3.2279680	56.0835	55.7679	6.961546	32.08980
733	6.55833	3.2289229	56.3579	56.0406	6.961406	32.10275
734	6.55334	3.2293225	56.6199	56.3012	6.961817	32.11171
735	6.54913	3.2298469	56.8850	56.5647	6.962072	32.12132
736	6.54692	3.2305898	57.1532	56.8313	6.961975	32.13146
737	6.54501	3.2311767	57.4244	57.1010	6.961919	32.13958
738	6.54322	3.2318199	57.6956	57.3706	6.961821	32.14823
739	6.54162	3.2322820	57.9607	57.6341	6.961789	32.15470
740	6.53679	3.2325319	58.2350	57.9069	6.962257	32.16187
741	6.53058	3.2337059	58.5122	58.1825	6.962430	32.18053
742	6.52544	3.2344492	58.7894	58.4581	6.962688	32.19343
743	6.52179	3.2347554	59.0820	58.7490	6.962983	32.20011
744	6.52005	3.2353738	59.3775	59.0428	6.962892	32.20843
745	6.51722	3.2359611	59.6517	59.3155	6.962947	32.21744
746	6.51276	3.2363297	59.9108	59.5730	6.963310	32.22560
747	6.51065	3.2365485	60.1882	59.8488	6.963462	32.22987
748	6.51122	3.2364549	60.4654	60.1245	6.963446	32.22817
749	6.51337	3.2372608	60.7367	60.3941	6.962787	32.23490
750	6.51445	3.2390540	61.0048	60.6607	6.961765	32.25354
751	6.51260	3.2403227	61.2668	60.9212	6.961360	32.26916
752	6.50957	3.2408478	61.5410	61.1938	6.961470	32.27768
753	6.50577	3.2412542	61.8153	61.4665	6.961733	32.28563
754	6.50223	3.2415293	62.0865	61.7361	6.962031	32.29189
755	6.49823	3.2416545	62.3608	62.0089	6.962459	32.29692
756	6.49699	3.2423359	62.6319	62.2784	6.962273	32.30548
757	6.49540	3.2428299	62.8941	62.5391	6.962224	32.31231
758	6.49350	3.2431113	63.1713	62.8146	6.962320	32.31709
759	6.49227	3.2434177	63.4487	63.0904	6.962321	32.32150
760	6.49027	3.2435429	63.7168	63.3570	6.962507	32.32465
761	6.48760	3.2436993	63.9941	63.6327	6.962758	32.32877
762	6.48663	3.2439182	64.2683	63.9053	6.962773	32.33198
763	6.48642	3.2442122	64.5548	64.1901	6.962656	32.33529
764	6.48534	3.2443811	64.8321	64.4659	6.962708	32.33804
765	6.48401	3.2447876	65.1185	64.7506	6.962672	32.34366
766	6.48375	3.2454693	65.3838	65.0143	6.962368	32.35130
767	6.48186	3.2462136	65.6610	65.2899	6.962231	32.36119
768	6.47811	3.2468016	65.9443	65.5716	6.962396	32.37110
769	6.47524	3.2471082	66.2339	65.8595	6.962596	32.37708
770	6.47385	3.2473585	66.5142	66.1381	6.962645	32.38102
771	6.47303	3.2477651	66.7824	66.4048	6.962546	32.38617
772	6.47221	3.2481656	67.0536	66.6744	6.962451	32.39124
773	6.47057	3.2485723	67.3248	66.9440	6.962452	32.39716
774	6.46764	3.2490666	67.5929	67.2106	6.962564	32.40527
775	6.46688	3.2495922	67.8642	67.4803	6.962399	32.41168
776	6.46693	3.2498113	68.1445	67.7590	6.962289	32.41392
777	6.46754	3.2503432	68.4127	68.0256	6.961954	32.41909
778	6.46595	3.2508689	68.6840	68.2953	6.961888	32.42628
779	6.46236	3.2513321	68.9643	68.5739	6.962097	32.43468
780	6.45882	3.2521145	69.2598	68.8678	6.962139	32.44655
781	6.45421	3.2522961	69.5555	69.1617	6.962613	32.45280
782	6.44882	3.2528595	69.8510	69.4555	6.962988	32.46401
783	6.44390	3.2535419	70.1070	69.7100	6.963247	32.47612
784	6.43985	3.2536985	70.3750	69.9765	6.963665	32.48158
785	6.43826	3.2538551	70.6495	70.2494	6.963784	32.48469
786	6.43791	3.2532919	70.9237	70.5219	6.964117	32.47867
787	6.43621	3.2532982	71.1919	70.7886	6.964324	32.48022
788	6.43437	3.2545690	71.4631	71.0582	6.963915	32.49591
789	6.43350	3.2546943	71.7343	71.3278	6.963964	32.49800
790	6.43375	3.2549761	72.0238	71.6156	6.963797	32.50073
791	6.43442	3.2553456	72.2859	71.8762	6.963537	32.50406
792	6.43365	3.2556587	72.5541	72.1428	6.963478	32.50813
793	6.43181	3.2560909	72.8253	72.4124	6.963490	32.51454
794	6.43006	3.2568736	73.0751	72.6608	6.963313	32.52475
795	6.42909	3.2576189	73.3432	72.9274	6.963063	32.53380
796	6.42919	3.2581200	73.5902	73.1729	6.962804	32.53913
797	6.42847	3.2586462	73.8493	73.4304	6.962632	32.54551
798	6.42699	3.2589281	74.1022	73.6819	6.962676	32.54993
799	6.42714	3.2592101	74.3642	73.9423	6.962521	32.55278
800	6.42883	3.2600182	74.5806	74.1575	6.961915	32.56000
801	6.42827	3.2607700	74.7726	74.3484	6.961610	32.56877
802	6.42514	3.2605195	74.9677	74.5423	6.962118	32.56889
803	6.42192	3.2606135	75.1719	74.7453	6.962465	32.57291
804	6.42192	3.2609832	75.3700	74.9423	6.962284	32.57691
805	6.42243	3.2613905	75.5803	75.1513	6.962022	32.58083
806	6.42181	3.2621988	75.7906	75.3604	6.961695	32.59027
807	6.42130	3.2638219	76.0010	75.5695	6.960945	32.60863
808	6.42146	3.2645740	76.2113	75.7787	6.960553	32.61671
809	6.42069	3.2650755	76.4337	75.9997	6.960399	32.62290
810	6.41946	3.2653827	76.6440	76.2088	6.960398	32.62737
811	6.41884	3.2655708	76.8756	76.4391	6.960383	32.62993
812	6.42043	3.2658216	77.1133	76.6754	6.960070	32.63108
813	6.42217	3.2662292	77.3542	76.9148	6.959660	32.63381
814	6.42207	3.2663546	77.5918	77.1510	6.959615	32.63518
815	6.42140	3.2664801	77.8386	77.3964	6.959637	32.63709
816	6.42135	3.2665742	78.0765	77.6329	6.959602	32.63807
817	6.42099	3.2665617	78.3172	77.8721	6.959656	32.63815
818	6.42053	3.2666057	78.5853	78.1387	6.959696	32.63895
819	6.42069	3.2667938	78.8322	78.3842	6.959588	32.64077
820	6.41976	3.2669757	79.0913	78.6417	6.959614	32.64354
821	6.41777	3.2672266	79.3443	78.8932	6.959734	32.64811
822	6.41572	3.2674461	79.5911	79.1386	6.959877	32.65239
823	6.41316	3.2676657	79.8563	79.4022	6.960082	32.65714
824	6.40962	3.2682928	80.1153	79.6597	6.960199	32.66735
825	6.40639	3.2689200	80.3622	79.9051	6.960279	32.67727
826	6.40307	3.2692650	80.6120	80.1534	6.960513	32.68417
827	6.40086	3.2695410	80.8711	80.4111	6.960645	32.68921
828	6.39902	3.2696979	81.1301	80.6685	6.960795	32.69259
829	6.39641	3.2697294	81.3921	80.9290	6.961100	32.69532
830	6.39206	3.2705448	81.6512	81.1866	6.961221	32.70841
831	6.38484	3.2708899	81.9224	81.4562	6.961925	32.71903
832	6.37665	3.2711347	82.1907	81.7229	6.962796	32.72948
833	6.36897	3.2714485	82.4557	81.9864	6.963571	32.74020
834	6.36268	3.2716682	82.7149	82.2440	6.964226	32.74856
835	6.35766	3.2718565	82.9739	82.5015	6.964743	32.75534
836	6.35372	3.2719821	83.2420	82.7681	6.965161	32.76039
837	6.35112	3.2722018	83.5103	83.0347	6.965371	32.76521
838	6.34938	3.2724215	83.7723	83.2952	6.965476	32.76919
839	6.34815	3.2725470	84.0314	83.5528	6.965567	32.77164
840	6.34805	3.2727729	84.2904	83.8102	6.965471	32.77412
841	6.34871	3.2729863	84.5587	84.0769	6.965289	32.77572
842	6.34902	3.2731119	84.8209	84.3375	6.965194	32.77670
843	6.34892	3.2733629	85.0768	84.5920	6.965086	32.77946
844	6.34876	3.2744610	85.3359	84.8495	6.964556	32.79167
845	6.34943	3.2759609	85.5978	85.1099	6.963725	32.80756
846	6.35025	3.2770280	85.8569	85.3675	6.963094	32.81849
847	6.35045	3.2776557	86.1160	85.6250	6.962758	32.82514
848	6.35091	3.2780325	86.3842	85.8916	6.962519	32.82875
849	6.35214	3.2783150	86.6554	86.1612	6.962234	32.83057
850	6.35168	3.2785976	86.9206	86.4248	6.962153	32.83403
851	6.35019	3.2790058	87.1950	86.6976	6.962132	32.83985
852	6.34800	3.2794768	87.4570	86.9581	6.962166	32.84708
853	6.34534	3.2797406	87.7191	87.2187	6.962359	32.85244
854	6.34191	3.2799479	87.9903	87.4882	6.962674	32.85792
855	6.33925	3.2801364	88.2555	87.7519	6.962906	32.86245
856	6.33756	3.2807330	88.5205	88.0153	6.962814	32.87058
857	6.33659	3.2812355	88.7857	88.2790	6.962683	32.87697
858	6.33567	3.2816438	89.0478	88.5395	6.962594	32.88226
859	6.33439	3.2820207	89.3099	88.8001	6.962564	32.88756
860	6.33311	3.2822092	89.5781	89.0666	6.962629	32.89076
861	6.33199	3.2822344	89.8799	89.3667	6.962758	32.89198
862	6.33219	3.2822722	90.2029	89.6878	6.962722	32.89204
863	6.33148	3.2825235	90.4710	89.9543	6.962687	32.89539
864	6.32954	3.2826178	90.7270	90.2088	6.962879	32.89819
865	6.32785	3.2826493	90.9984	90.4785	6.963073	32.90004
866	6.32836	3.2826494	91.2574	90.7360	6.963017	32.89942
867	6.32841	3.2826809	91.5164	90.9935	6.963001	32.89960
868	6.32729	3.2826810	91.7816	91.2571	6.963142	32.90056
869	6.32637	3.2827125	92.0467	91.5207	6.963243	32.90167
870	6.32601	3.2827880	92.3240	91.7963	6.963254	32.90272
871	6.32652	3.2828069	92.5893	92.0600	6.963189	32.90230
872	6.32754	3.2828384	92.8574	92.3265	6.963056	32.90153
873	6.32749	3.2828698	93.1288	92.5962	6.963052	32.90180
874	6.32754	3.2829327	93.4030	92.8689	6.963020	32.90232
875	6.32764	3.2830899	93.6682	93.1325	6.962934	32.90384
876	6.32739	3.2831465	93.9485	93.4111	6.962943	32.90458
877	6.32739	3.2832157	94.2198	93.6808	6.962914	32.90521
878	6.32713	3.2832786	94.4880	93.9474	6.962919	32.90603
879	6.32621	3.2833729	94.7530	94.2108	6.962988	32.90784
880	6.32529	3.2835300	95.0335	94.4897	6.963026	32.91034
881	6.32432	3.2835615	95.3108	94.7653	6.963133	32.91149
882	6.32371	3.2836244	95.5761	95.0290	6.963181	32.91265
883	6.32279	3.2837501	95.8473	95.2986	6.963235	32.91481
884	6.32182	3.2838131	96.1125	95.5622	6.963326	32.91632
885	6.32161	3.2839074	96.3777	95.8258	6.963309	32.91743
886	6.32238	3.2840959	96.6519	96.0984	6.963127	32.91865
887	6.32320	3.2842216	96.9170	96.3619	6.962971	32.91913
888	6.32361	3.2842845	97.1913	96.6346	6.962896	32.91930
889	6.32340	3.2842532	97.4596	96.9013	6.962942	32.91902
890	6.32320	3.2843098	97.7276	97.1677	6.962944	32.91972
891	6.32299	3.2843790	97.9991	97.4375	6.962940	32.92055
892	6.32228	3.2843477	98.2642	97.7011	6.963048	32.92077
893	6.32166	3.2844734	98.5475	97.9828	6.963065	32.92262
894	6.32141	3.2847248	98.8188	98.2524	6.962975	32.92553
895	6.32039	3.2847249	99.0962	98.5282	6.963104	32.92638
896	6.31839	3.2847878	99.3796	98.8099	6.963319	32.92887
897	6.31660	3.2849450	99.6630	99.0916	6.963461	32.93221
898	6.31543	3.2850331	99.9526	99.3794	6.963565	32.93419
899	6.31297	3.2851023	100.2755	99.7004	6.963833	32.93717
900	6.30991	3.2851338	100.5772	100.0003	6.964193	32.94034
901	6.30643	3.2852534	100.8821	100.3034	6.964559	32.94488
902	6.30230	3.2853854	101.1747	100.5942	6.964997	32.95021
903	6.29887	3.2855112	101.4581	100.8759	6.965353	32.95479
904	6.29622	3.2856621	101.7567	101.1727	6.965604	32.95889
905	6.29320	3.2858884	102.0493	101.4636	6.965859	32.96418
906	6.29004	3.2860394	102.3388	101.7514	6.966171	32.96879
907	6.28651	3.2860709	102.6405	102.0513	6.966587	32.97240
908	6.28171	3.2860145	102.9302	102.3392	6.967201	32.97629
909	6.27548	3.2861341	103.2075	102.6148	6.967898	32.98352
910	6.26787	3.2860777	103.4910	102.8966	6.968851	32.99012
911	6.25802	3.2862349	103.7653	103.1693	6.969966	33.00129
912	6.24909	3.2863420	104.0396	103.4420	6.970996	33.01101
913	6.24221	3.2865181	104.3169	103.7176	6.971744	33.01952
914	6.23639	3.2865810	104.5913	103.9904	6.972420	33.02574
915	6.23175	3.2866126	104.8624	104.2599	6.972971	33.03046
916	6.22797	3.2866441	105.1490	104.5447	6.973417	33.03434
917	6.22491	3.2866443	105.4264	104.8204	6.973792	33.03718
918	6.22252	3.2866758	105.7097	105.1021	6.974072	33.03972
919	6.22032	3.2866759	105.9932	105.3839	6.974343	33.04171
920	6.21788	3.2867389	106.2706	105.6596	6.974613	33.04466
921	6.21558	3.2867390	106.5540	105.9412	6.974896	33.04675
922	6.21314	3.2865192	106.8404	106.2260	6.975310	33.04654
923	6.20875	3.2865507	107.1240	106.5078	6.975830	33.05101
924	6.20121	3.2866137	107.4043	106.7864	6.976715	33.05891
925	6.19361	3.2866139	107.6847	107.0652	6.977639	33.06616
926	6.18730	3.2867711	107.9651	107.3439	6.978329	33.07392
927	6.18169	3.2874311	108.2394	107.6165	6.978677	33.08661
928	6.17619	3.2876889	108.5259	107.9013	6.979217	33.09470
929	6.17186	3.2878085	108.8094	108.1831	6.979685	33.10012
930	6.16901	3.2879657	109.0927	108.4647	6.979956	33.10451
931	6.16667	3.2880601	109.3731	108.7435	6.980198	33.10771
932	6.16504	3.2881671	109.6505	109.0192	6.980347	33.11036
933	6.16295	3.2887894	109.9278	109.2948	6.980288	33.11921
934	6.15999	3.2890724	110.2083	109.5736	6.980507	33.12511
935	6.15679	3.2892736	110.4978	109.8614	6.980799	33.13034
936	6.15450	3.2894498	110.8117	110.1734	6.980993	33.13439
937	6.15271	3.2898270	111.1044	110.4643	6.981023	33.14020
938	6.14997	3.2902358	111.3786	110.7369	6.981153	33.14731
939	6.14645	3.2906257	111.6560	111.0126	6.981385	33.15496
940	6.14381	3.2908961	111.9363	111.2911	6.981573	33.16043
941	6.14146	3.2911163	112.2289	111.5820	6.981751	33.16503
942	6.13877	3.2912736	112.5153	111.8667	6.982003	33.16928
943	6.13597	3.2915189	112.7928	112.1425	6.982222	33.17462
944	6.13332	3.2917516	113.0763	112.4243	6.982430	33.17967
945	6.13119	3.2919718	113.3658	112.7120	6.982582	33.18408
946	6.12966	3.2920977	113.6554	112.9999	6.982709	33.18684
947	6.12793	3.2922424	113.9357	113.2785	6.982851	33.19001
948	6.12625	3.2923494	114.2130	113.5542	6.983005	33.19271
949	6.12472	3.2924438	114.4965	113.8359	6.983148	33.19512
950	6.12376	3.2925068	114.7769	114.1146	6.983239	33.19663
951	6.12299	3.2926012	115.0483	114.3844	6.983289	33.19830
952	6.12233	3.2926328	115.3347	114.6690	6.983359	33.19915
953	6.12213	3.2927586	115.6182	114.9508	6.983326	33.20062
954	6.12203	3.2927902	115.9016	115.2325	6.983329	33.20093
955	6.12147	3.2929160	116.2003	115.5294	6.983339	33.20274
956	6.12091	3.2930733	116.4867	115.8141	6.983332	33.20491
957	6.12020	3.2932307	116.7793	116.1049	6.983345	33.20722
958	6.11948	3.2933565	117.0628	116.3867	6.983373	33.20918
959	6.11892	3.2934510	117.3400	116.6622	6.983399	33.21065
960	6.11826	3.2935328	117.6207	116.9412	6.983443	33.21208
961	6.11709	3.2935769	117.8918	117.2106	6.983568	33.21358
962	6.11592	3.2936399	118.1783	117.4954	6.983684	33.21529
963	6.11511	3.2937658	118.4618	117.7772	6.983724	33.21735
964	6.11414	3.2939231	118.7392	118.0529	6.983767	33.21992
965	6.11313	3.2940490	119.0194	118.3314	6.983832	33.22219
966	6.11236	3.2941875	119.3151	118.6254	6.983860	33.22434
967	6.11175	3.2942756	119.5954	118.9040	6.983895	33.22578
968	6.11063	3.2944833	119.8973	119.2040	6.983931	33.22905
969	6.10890	3.2947161	120.1990	119.5038	6.984028	33.23320
970	6.10687	3.2950622	120.4824	119.7856	6.984104	33.23893
971	6.10473	3.2953453	120.7659	120.0674	6.984223	33.24405
972	6.10270	3.2954775	121.0584	120.3580	6.984408	33.24737
973	6.10082	3.2954714	121.3663	120.6641	6.984646	33.24899
974	6.09950	3.2955973	121.6710	120.9669	6.984748	33.25155
975	6.09812	3.2956603	121.9607	121.2549	6.984888	33.25346
976	6.09660	3.2957548	122.2440	121.5364	6.985031	33.25587
977	6.09563	3.2957549	122.5336	121.8243	6.985154	33.25667
978	6.09512	3.2958179	122.8140	122.1030	6.985189	33.25774
979	6.09451	3.2958997	123.1035	122.3908	6.985228	33.25911
980	6.09360	3.2959753	123.3931	122.6786	6.985306	33.26071
981	6.09279	3.2962334	123.6827	122.9664	6.985279	33.26425
982	6.09162	3.2965795	123.9661	123.2481	6.985250	33.26913
983	6.08938	3.2971898	124.2496	123.5298	6.985215	33.27802
984	6.08709	3.2973661	124.5269	123.8054	6.985407	33.28210
985	6.08521	3.2974606	124.8132	124.0900	6.985593	33.28486
986	6.08369	3.2976180	125.1031	124.3781	6.985703	33.28797
987	6.08232	3.2978383	125.3863	124.6596	6.985763	33.29165
988	6.08074	3.2979391	125.6759	124.9475	6.985908	33.29418
989	6.07901	3.2981280	125.9656	125.2354	6.986027	33.29785
990	6.07744	3.2982539	126.2519	125.5199	6.986159	33.30066
991	6.07612	3.2983484	126.5476	125.8138	6.986277	33.30287
992	6.07520	3.2983611	126.8279	126.0925	6.986388	33.30377
993	6.07459	3.2984116	127.1146	126.3773	6.986442	33.30480
994	6.07393	3.2985690	127.3980	126.6590	6.986448	33.30707
995	6.07302	3.2987264	127.6843	126.9436	6.986484	33.30959
996	6.07190	3.2988523	127.9801	127.2375	6.986562	33.31195
997	6.07083	3.2990098	128.2636	127.5194	6.986616	33.31462
998	6.06971	3.2991735	128.5562	127.8101	6.986674	33.31741
999	6.06865	3.2992302	128.8396	128.0918	6.986781	33.31895
1000	6.06753	3.2992618	129.1323	128.3827	6.986906	33.32026
1001	6.06687	3.2992871	129.4370	128.6855	6.986980	33.32104
1002	6.06611	3.2993249	129.7294	128.9762	6.987059	33.32207
1003	6.06565	3.2993502	130.0191	129.2641	6.987108	33.32266
1004	6.06514	3.2994510	130.3147	129.5579	6.987124	33.32414
1005	6.06448	3.2995203	130.5982	129.8397	6.987175	33.32542
1006	6.06397	3.2996211	130.8846	130.1243	6.987191	33.32691
1007	6.06367	3.2997093	131.1742	130.4122	6.987190	33.32806
1008	6.06301	3.2997409	131.4759	130.7120	6.987260	33.32891
1009	6.06224	3.2997095	131.8083	131.0424	6.987376	33.32914
1010	6.06164	3.2998040	132.1220	131.3542	6.987408	33.33064
1011	6.06108	3.2998985	132.4025	131.6329	6.987434	33.33211
1012	6.06047	3.2999930	132.6768	131.9055	6.987465	33.33364
1013	6.06006	3.3000561	132.9632	132.1902	6.987488	33.33460
1014	6.06016	3.3000750	133.2436	132.4688	6.987473	33.33457
1015	6.06052	3.3001506	133.5330	132.7565	6.987398	33.33493
1016	6.06118	3.3001822	133.8137	133.0354	6.987308	33.33450
1017	6.06118	3.3001823	134.1062	133.3262	6.987315	33.33435
1018	6.06037	3.3002453	134.3928	133.6110	6.987387	33.33572
1019	6.05960	3.3003398	134.6762	133.8926	6.987437	33.33738
1020	6.05904	3.3003714	134.9687	134.1834	6.987495	33.33814
1021	6.05849	3.3004659	135.2613	134.4741	6.987521	33.33961
1022	6.05808	3.3005604	135.5417	134.7529	6.987528	33.34093
1023	6.05722	3.3006549	135.8373	135.0466	6.987591	33.34269
1024	6.05590	3.3009383	136.1149	135.3225	6.987611	33.34702
1025	6.05402	3.3012468	136.4164	135.6222	6.987687	33.35218
1026	6.05173	3.3014484	136.7031	135.9071	6.987867	33.35654
1027	6.04924	3.3015429	136.9986	136.2008	6.988126	33.35990
1028	6.04731	3.3016060	137.2852	136.4856	6.988333	33.36237
1029	6.04569	3.3016375	137.5686	136.7672	6.988520	33.36418
1030	6.04477	3.3017006	137.8674	137.0642	6.988605	33.36564
1031	6.04376	3.3017573	138.1628	137.3578	6.988705	33.36713
1032	6.04289	3.3018582	138.4586	137.6518	6.988764	33.36896
1033	6.04173	3.3019968	138.7571	137.9485	6.988841	33.37152
1034	6.04025	3.3021417	139.0436	138.2332	6.988951	33.37445
1035	6.03822	3.3023306	139.3425	138.5303	6.989107	33.37842
1036	6.03594	3.3024944	139.6228	138.8088	6.989305	33.38236
1037	6.03365	3.3028093	139.9184	139.1026	6.989427	33.38800
1038	6.03152	3.3029983	140.1927	139.3752	6.989594	33.39208
1039	6.02904	3.3036217	140.4883	139.6690	6.989581	33.40138
1040	6.02574	3.3042641	140.7750	139.9539	6.989657	33.41169
1041	6.02193	3.3046736	141.0706	140.2477	6.989914	33.41989
1042	6.01685	3.3054357	141.3876	140.5627	6.990143	33.43329
1043	6.01082	3.3059964	141.7197	140.8928	6.990593	33.44537
1044	6.00453	3.3066390	142.0701	141.2411	6.991031	33.45862
1045	5.99839	3.3069856	142.4054	141.5742	6.991602	33.46840
1046	5.99321	3.3072440	142.6951	141.8621	6.992101	33.47627
1047	5.98916	3.3074709	142.9784	142.1437	6.992481	33.48269
1048	5.98627	3.3076222	143.2620	142.4255	6.992759	33.48710
1049	5.98439	3.3077672	143.5667	142.7283	6.992918	33.49043
1050	5.98201	3.3081957	143.8685	143.0283	6.992993	33.49745
1051	5.97932	3.3084793	144.1671	143.3250	6.993179	33.50315
1052	5.97709	3.3087062	144.4537	143.6098	6.993338	33.50776
1053	5.97531	3.3088890	144.7462	143.9006	6.993465	33.51142
1054	5.97354	3.3090088	145.0450	144.1975	6.993625	33.51438
1055	5.97121	3.3092106	145.3466	144.4972	6.993810	33.51880
1056	5.96878	3.3093367	145.6484	144.7972	6.994046	33.52248
1057	5.96695	3.3094313	145.9409	145.0878	6.994224	33.52520
1058	5.96563	3.3095511	146.2335	145.3787	6.994328	33.52771
1059	5.96442	3.3095828	146.5353	145.6786	6.994466	33.52911
1060	5.96305	3.3096711	146.8309	145.9724	6.994593	33.53132
1061	5.96209	3.3097468	147.1205	146.2601	6.994677	33.53298
1062	5.96122	3.3098099	147.4071	146.5450	6.994755	33.53440
1063	5.96062	3.3098856	147.6996	146.8357	6.994796	33.53570
1064	5.96006	3.3099046	147.9953	147.1295	6.994860	33.53632
1065	5.95965	3.3099425	148.2909	147.4232	6.994897	33.53700
1066	5.95920	3.3099426	148.5956	147.7261	6.994959	33.53730
1067	5.95874	3.3099679	148.8974	148.0260	6.995008	33.53789
1068	5.95854	3.3100058	149.1960	148.3228	6.995019	33.53837
1069	5.95808	3.3100626	149.4948	148.6197	6.995052	33.53931
1070	5.95763	3.3101257	149.7904	148.9135	6.995081	33.54032
1071	5.95702	3.3101951	150.0800	149.2013	6.995126	33.54156
1072	5.95611	3.3103213	150.3574	149.4769	6.995177	33.54374
1073	5.95530	3.3103907	150.6774	149.7950	6.995247	33.54517
1074	5.95438	3.3104538	150.9882	150.1038	6.995332	33.54663
1075	5.95342	3.3105106	151.2900	150.4038	6.995426	33.54807
1076	5.95266	3.3105422	151.5856	150.6975	6.995508	33.54903
1077	5.95231	3.3105550	151.9086	151.0185	6.995552	33.54936
1078	5.95185	3.3106055	152.2620	151.3697	6.995589	33.55021
1079	5.95124	3.3107001	152.5791	151.6848	6.995621	33.55172
1080	5.95018	3.3108200	152.8869	151.9908	6.995695	33.55397
1081	5.94891	3.3108894	153.1765	152.2785	6.995819	33.55586
1082	5.94749	3.3109210	153.4629	152.5632	6.995980	33.55748
1083	5.94623	3.3109211	153.7555	152.8539	6.996140	33.55859
1084	5.94496	3.3109716	154.0452	153.1418	6.996274	33.56027
1085	5.94425	3.3109969	154.3470	153.4417	6.996353	33.56110
1086	5.94349	3.3110474	154.6487	153.7415	6.996426	33.56227
1087	5.94273	3.3110917	154.9473	154.0382	6.996502	33.56338
1088	5.94146	3.3111233	155.2520	154.3410	6.996646	33.56483
1089	5.94025	3.3111801	155.5599	154.6470	6.996770	33.56653
1090	5.93913	3.3111802	155.8587	154.9440	6.996912	33.56748
1091	5.93782	3.3112433	156.1632	155.2466	6.997045	33.56935
1092	5.93615	3.3112435	156.4681	155.5495	6.997254	33.57085
1093	5.93371	3.3112121	156.7485	155.8282	6.997571	33.57277
1094	5.93108	3.3112437	157.0563	156.1341	6.997880	33.57558
1095	5.92885	3.3111808	157.3703	156.4461	6.998189	33.57693
1096	5.92627	3.3111494	157.6690	156.7430	6.998524	33.57899
1097	5.92374	3.3111243	157.9707	157.0428	6.998850	33.58107
1098	5.92095	3.3111497	158.2694	157.3396	6.999180	33.58397
1099	5.91827	3.3111498	158.5679	157.6362	6.999511	33.58648
1100	5.91574	3.3111814	158.8668	157.9333	6.999808	33.58920
1101	5.91366	3.3111500	159.1686	158.2331	7.000082	33.59076
1102	5.91149	3.3111501	159.4641	158.5269	7.000352	33.59277
1103	5.90977	3.3111818	159.7536	158.8145	7.000550	33.59469
1104	5.90794	3.3112134	160.0401	159.0992	7.000761	33.59671
1105	5.90663	3.3111820	160.3084	159.3658	7.000943	33.59753
1106	5.90526	3.3111821	160.5887	159.6444	7.001114	33.59875
1107	5.90405	3.3111822	160.8875	159.9413	7.001268	33.59981
1108	5.90268	3.3111508	161.1647	160.2168	7.001456	33.60067
1109	5.90106	3.3111824	161.4451	160.4954	7.001642	33.60249
1110	5.89954	3.3111510	161.7227	160.7712	7.001848	33.60351
1111	5.89828	3.3111511	162.0123	161.0590	7.002008	33.60462
1112	5.89742	3.3110945	162.3291	161.3739	7.002148	33.60468
1113	5.89661	3.3110946	162.6400	161.6828	7.002253	33.60533
1114	5.89595	3.3111829	162.9295	161.9705	7.002294	33.60683
1115	5.89529	3.3112145	163.1918	162.2311	7.002363	33.60771
1116	5.89484	3.3112461	163.4568	162.4945	7.002408	33.60839
1117	5.89469	3.3112462	163.7342	162.7701	7.002432	33.60840
1118	5.89428	3.3111518	164.0145	163.0487	7.002537	33.60760
1119	5.89302	3.3111204	164.2890	163.3215	7.002712	33.60837
1120	5.89160	3.3111268	164.5752	163.6059	7.002887	33.60970
1121	5.89054	3.3111521	164.8496	163.8785	7.003009	33.61091
1122	5.88998	3.3111522	165.1270	164.1542	7.003082	33.61132
1123	5.88952	3.3111838	165.4136	164.4390	7.003127	33.61199
1124	5.88887	3.3111839	165.6910	164.7146	7.003213	33.61250
1125	5.88856	3.3111840	165.9592	164.9812	7.003256	33.61267
1126	5.88851	3.3111840	166.2364	165.2566	7.003269	33.61259
1127	5.88846	3.3111526	166.5108	165.5293	7.003297	33.61214
1128	5.88826	3.3111842	166.7885	165.8052	7.003312	33.61256
1129	5.88801	3.3111843	167.0929	166.1077	7.003349	33.61266
1130	5.88806	3.3112159	167.3614	166.3745	7.003333	33.61284
1131	5.88775	3.3111845	167.6447	166.6560	7.003392	33.61264
1132	5.88745	3.3111846	167.9222	166.9318	7.003435	33.61281
1133	5.88740	3.3112162	168.1994	167.2073	7.003432	33.61307
1134	5.88735	3.3112163	168.4737	167.4798	7.003444	33.61299
1135	5.88735	3.3112164	168.7511	167.7554	7.003450	33.61285
1136	5.88684	3.3112480	169.0315	168.0341	7.003501	33.61357
1137	5.88634	3.3112733	169.3150	168.3159	7.003556	33.61422
1138	5.88603	3.3112797	169.5923	168.5913	7.003596	33.61445
1139	5.88568	3.3113365	169.8635	168.8608	7.003616	33.61531
1140	5.88548	3.3112988	170.1651	169.1606	7.003666	33.61493
1141	5.88528	3.3113052	170.4456	169.4393	7.003694	33.61507
1142	5.88467	3.3113431	170.7264	169.7183	7.003754	33.61596
1143	5.88411	3.3113747	171.0004	169.9906	7.003812	33.61673
1144	5.88320	3.3113369	171.2778	170.2662	7.003948	33.61707
1145	5.88219	3.3113433	171.5521	170.5387	7.004073	33.61801
1146	5.88067	3.3113056	171.8204	170.8054	7.004282	33.61896
1147	5.87966	3.3112742	172.1100	171.0932	7.004428	33.61947
1148	5.87855	3.3112176	172.4267	171.4078	7.004599	33.61978
1149	5.87733	3.3110917	172.7344	171.7137	7.004818	33.61941
1150	5.87546	3.3111233	173.0181	171.9956	7.005035	33.62149
1151	5.87405	3.3111234	173.2984	172.2741	7.005212	33.62275
1152	5.87278	3.3111550	173.5576	172.5316	7.005355	33.62424
1153	5.87228	3.3111551	173.8288	172.8011	7.005422	33.62461
1154	5.87177	3.3110985	174.1094	173.0799	7.005519	33.62433
1155	5.87086	3.3110041	174.4017	173.3704	7.005685	33.62402
1156	5.86919	3.3109601	174.6822	173.6491	7.005916	33.62505
1157	5.86747	3.3108972	174.9596	173.9247	7.006163	33.62591
1158	5.86585	3.3107964	175.2308	174.1942	7.006417	33.62625
1159	5.86408	3.3106768	175.4991	174.4608	7.006700	33.62652
1160	5.86257	3.3106769	175.7795	174.7394	7.006890	33.62789
1161	5.86125	3.3106203	176.0720	175.0301	7.007085	33.62842
1162	5.86029	3.3106141	176.3708	175.3270	7.007211	33.62915
1163	5.85964	3.3106457	176.6390	175.5934	7.007281	33.63003
1164	5.85903	3.3106458	176.9194	175.8721	7.007360	33.63049
1165	5.85873	3.3105514	177.1845	176.1355	7.007452	33.62960
1166	5.85817	3.3105830	177.4617	176.4110	7.007509	33.63037
1167	5.85751	3.3105516	177.7271	176.6747	7.007611	33.63053
1168	5.85685	3.3105264	178.0014	176.9472	7.007710	33.63077
1169	5.85630	3.3105202	178.2634	177.2075	7.007787	33.63112
1170	5.85554	3.3104573	178.5378	177.4803	7.007917	33.63103
1171	5.85412	3.3104448	178.8212	177.7619	7.008102	33.63215
1172	5.85296	3.3104386	179.1017	178.0405	7.008252	33.63310
1173	5.85200	3.3104387	179.3763	178.3134	7.008375	33.63392
1174	5.85124	3.3103947	179.6564	178.5917	7.008496	33.63404
1175	5.85059	3.3104200	179.9367	178.8703	7.008569	33.63484
1176	5.84998	3.3104264	180.2232	179.1550	7.008646	33.63537
1177	5.84963	3.3103635	180.5190	179.4488	7.008728	33.63486
1178	5.84942	3.3103321	180.8479	179.7756	7.008776	33.63455
1179	5.84927	3.3103007	181.1953	180.1208	7.008819	33.63417
1180	5.84897	3.3103953	181.4911	180.4147	7.008813	33.63539
1181	5.84846	3.3104269	181.7562	180.6782	7.008864	33.63612
1182	5.84801	3.3104270	182.0182	180.9385	7.008925	33.63644
1183	5.84750	3.3104082	182.2956	181.2141	7.009003	33.63659
1184	5.84720	3.3103012	182.6097	181.5262	7.009102	33.63553
1185	5.84629	3.3102382	182.9082	181.8228	7.009251	33.63558
1186	5.84518	3.3103014	183.2010	182.1137	7.009360	33.63725
1187	5.84407	3.3103015	183.4662	182.3773	7.009501	33.63822
1188	5.84351	3.3103646	183.7313	182.6407	7.009542	33.63935
1189	5.84316	3.3103458	184.0085	182.9161	7.009601	33.63936
1190	5.84306	3.3103017	184.2676	183.1735	7.009642	33.63883
1191	5.84270	3.3103648	184.5420	183.4462	7.009658	33.63976
1192	5.84245	3.3103460	184.8193	183.7217	7.009705	33.63966
1193	5.84225	3.3103965	185.0845	183.9852	7.009709	33.64030
1194	5.84250	3.3103651	185.3526	184.2516	7.009701	33.63956
1195	5.84260	3.3103778	185.6119	184.5092	7.009688	33.63947
1196	5.84260	3.3103968	185.8647	184.7605	7.009684	33.63956
1197	5.84240	3.3103905	186.1453	185.0393	7.009718	33.63955
1198	5.84215	3.3103969	186.4195	185.3117	7.009752	33.63973
1199	5.84179	3.3104285	186.6818	185.5724	7.009784	33.64031
1200	5.84164	3.3103782	186.9407	185.8296	7.009835	33.63977
1201	5.84159	3.3103972	187.2028	186.0900	7.009837	33.63990
1202	5.84124	3.3104288	187.4709	186.3564	7.009870	33.64047
1203	5.84093	3.3103974	187.7331	186.6169	7.009929	33.64029
1204	5.84048	3.3103912	188.0075	186.8895	7.009993	33.64054
1205	5.84012	3.3103345	188.2788	187.1592	7.010072	33.64011
1206	5.83952	3.3103031	188.5437	187.4223	7.010167	33.64023
1207	5.83861	3.3103032	188.8030	187.6800	7.010284	33.64101
1208	5.83800	3.3102592	189.0652	187.9405	7.010386	33.64098
1209	5.83730	3.3102404	189.3272	188.2009	7.010487	33.64134
1210	5.83699	3.3102720	189.5954	188.4673	7.010514	33.64187
1211	5.83664	3.3102091	189.8786	188.7487	7.010596	33.64137
1212	5.83628	3.3102091	190.1685	189.0367	7.010645	33.64158
1213	5.83583	3.3102092	190.4611	189.3274	7.010707	33.64189
1214	5.83548	3.3102282	190.7201	189.5848	7.010746	33.64232
1215	5.83527	3.3102409	190.9821	189.8451	7.010770	33.64254
1216	5.83482	3.3102095	191.2690	190.1301	7.010848	33.64249
1217	5.83467	3.3102411	191.5613	190.4205	7.010857	33.64285
1218	5.83462	3.3102412	191.8295	190.6871	7.010869	33.64277
1219	5.83452	3.3102728	192.1007	190.9566	7.010871	33.64309
1220	5.83442	3.3102414	192.3963	191.2502	7.010906	33.64269
1221	5.83436	3.3101785	192.7256	191.5774	7.010952	33.64187
1222	5.83386	3.3101723	193.0183	191.8682	7.011024	33.64215
1223	5.83325	3.3102102	193.3045	192.1526	7.011084	33.64304
1224	5.83290	3.3101788	193.5727	192.4191	7.011149	33.64290
1225	5.83255	3.3101788	193.8440	192.6886	7.011198	33.64312
1226	5.83255	3.3102104	194.1122	192.9551	7.011188	33.64334
1227	5.83234	3.3102105	194.3864	193.2276	7.011219	33.64341
1228	5.83239	3.3102232	194.6761	193.5154	7.011213	33.64336
1229	5.83219	3.3102674	194.9717	193.8091	7.011221	33.64391
1230	5.83219	3.3102738	195.2734	194.1089	7.011225	33.64383
1231	5.83229	3.3102109	195.5414	194.3752	7.011251	33.64289
1232	5.83199	3.3102110	195.8341	194.6660	7.011295	33.64304
1233	5.83143	3.3101859	196.1390	194.9689	7.011382	33.64316
1234	5.83078	3.3101734	196.4345	195.2625	7.011475	33.64353
1235	5.83002	3.3101798	196.7150	195.5412	7.011570	33.64421
1236	5.82941	3.3101484	196.9830	195.8074	7.011666	33.64433
1237	5.82896	3.3101359	197.2697	196.0923	7.011734	33.64450
1238	5.82876	3.3101423	197.5623	196.3830	7.011762	33.64462
1239	5.82845	3.3101486	197.8306	196.6496	7.011801	33.64486
1240	5.82815	3.3101487	198.1045	196.9217	7.011844	33.64503
1241	5.82800	3.3101740	198.3670	197.1825	7.011856	33.64534
1242	5.82795	3.3102119	198.6138	197.4277	7.011848	33.64569
1243	5.82765	3.3101805	198.8698	197.6821	7.011907	33.64551
1244	5.82765	3.3101806	199.1380	197.9485	7.011913	33.64538
1245	5.82759	3.3101870	199.4123	198.2211	7.011922	33.64536
1246	5.82729	3.3101807	199.6715	198.4786	7.011968	33.64546
1247	5.82699	3.3101997	199.9303	198.7357	7.012001	33.64585
1248	5.82679	3.3102124	200.1771	198.9809	7.012024	33.64607
1249	5.82653	3.3102125	200.4211	199.2233	7.012060	33.64620
1250	5.82663	3.3101811	200.6650	199.4657	7.012070	33.64563
1251	5.82643	3.3102127	200.9210	199.7200	7.012084	33.64606
1252	5.82623	3.3101812	201.1770	199.9744	7.012131	33.64577
1253	5.82603	3.3101750	201.4332	200.2289	7.012164	33.64578
1254	5.82512	3.3101058	201.6982	200.4922	7.012316	33.64577
1255	5.82396	3.3100807	201.9634	200.7557	7.012476	33.64651
1256	5.82320	3.3100808	202.2226	201.0132	7.012574	33.64714
1257	5.82249	3.3100179	202.4966	201.2854	7.012699	33.64699
1258	5.82204	3.3100243	202.7893	201.5762	7.012757	33.64737
1259	5.82143	3.3100496	203.0667	201.8518	7.012824	33.64812
1260	5.82057	3.3099929	203.3228	202.1063	7.012963	33.64821
1261	5.81976	3.3099930	203.5726	202.3544	7.013067	33.64889
1262	5.81901	3.3099553	203.8469	202.6270	7.013185	33.64908
1263	5.81845	3.3099239	204.0877	202.8662	7.013274	33.64916
1264	5.81780	3.3099366	204.3528	203.1296	7.013353	33.64982
1265	5.81699	3.3099304	204.6150	203.3901	7.013460	33.65043
1266	5.81684	3.3099179	204.8772	203.6507	7.013491	33.65031
1267	5.81633	3.3099053	205.1270	203.8988	7.013565	33.65054
1268	5.81583	3.3098928	205.3892	204.1593	7.013638	33.65077
1269	5.81557	3.3098614	205.6362	204.4048	7.013691	33.65055
1270	5.81507	3.3098426	205.8922	204.6591	7.013768	33.65071
1271	5.81471	3.3098301	206.1482	204.9134	7.013823	33.65079
1272	5.81426	3.3098302	206.4042	205.1678	7.013884	33.65112
1273	5.81401	3.3098618	206.6632	205.4250	7.013904	33.65160
1274	5.81365	3.3098303	206.9222	205.6824	7.013969	33.65147
1275	5.81340	3.3098304	207.1752	205.9338	7.014006	33.65159
1276	5.81330	3.3098431	207.4311	206.1880	7.014017	33.65171
1277	5.81300	3.3098621	207.6904	206.4455	7.014050	33.65209
1278	5.81269	3.3098307	207.9434	206.6969	7.014109	33.65192
1279	5.81254	3.3098371	208.2145	206.9663	7.014130	33.65200
1280	5.81229	3.3098308	208.4888	207.2388	7.014170	33.65205
1281	5.81204	3.3098624	208.7663	207.5145	7.014191	33.65252
1282	5.81194	3.3098625	209.0344	207.7808	7.014209	33.65248
1283	5.81184	3.3098941	209.3027	208.0474	7.014211	33.65281
1284	5.81184	3.3098627	209.5555	208.2985	7.014233	33.65233
1285	5.81158	3.3098754	209.8176	208.5590	7.014263	33.65259
1286	5.81148	3.3098629	210.0706	208.8103	7.014288	33.65242
1287	5.81133	3.3098629	210.3176	209.0557	7.014312	33.65245
1288	5.81103	3.3098630	210.5888	209.3251	7.014355	33.65262
1289	5.81072	3.3098442	210.8693	209.6038	7.014408	33.65257
1290	5.81037	3.3098128	211.1342	209.8670	7.014473	33.65243
1291	5.80987	3.3098633	211.3902	210.1214	7.014514	33.65338
1292	5.80966	3.3098130	211.6494	210.3789	7.014570	33.65288
1293	5.80946	3.3098005	211.9175	210.6452	7.014608	33.65281
1294	5.80921	3.3098005	212.1917	210.9176	7.014644	33.65293
1295	5.80921	3.3098006	212.4845	211.2085	7.014651	33.65278
1296	5.80911	3.3098322	212.7678	211.4900	7.014653	33.65310
1297	5.80876	3.3098323	213.0114	211.7320	7.014702	33.65333
1298	5.80855	3.3098450	213.2705	211.9894	7.014726	33.65354
1299	5.80850	3.3098766	213.5328	212.2500	7.014721	33.65382
1300	5.80855	3.3098641	213.7920	212.5075	7.014728	33.65350
1301	5.80840	3.3098957	214.0479	212.7617	7.014736	33.65388
1302	5.80850	3.3098768	214.3099	213.0221	7.014739	33.65343
1303	5.80845	3.3099084	214.5720	213.2824	7.014735	33.65371
1304	5.80855	3.3099274	214.8340	213.5427	7.014719	33.65369
1305	5.80855	3.3099338	215.1024	213.8093	7.014722	33.65363
1306	5.80855	3.3098961	215.3644	214.0696	7.014747	33.65308
1307	5.80855	3.3098836	215.6297	214.3332	7.014760	33.65280
1308	5.80810	3.3098962	215.8977	214.5994	7.014814	33.65326
1309	5.80759	3.3098648	216.1690	214.8689	7.014898	33.65328
1310	5.80724	3.3098649	216.4463	215.1444	7.014947	33.65349
1311	5.80679	3.3098650	216.7053	215.4018	7.015008	33.65382
1312	5.80638	3.3098021	216.9616	215.6564	7.015096	33.65338
1313	5.80542	3.3097707	217.2175	215.9106	7.015234	33.65385
1314	5.80456	3.3098023	217.4857	216.1770	7.015328	33.65493
1315	5.80416	3.3097835	217.7354	216.4251	7.015393	33.65499
1316	5.80376	3.3097709	217.9946	216.6826	7.015454	33.65513
1317	5.80325	3.3098025	218.2475	216.9338	7.015505	33.65586
1318	5.80325	3.3098026	218.5095	217.1941	7.015511	33.65573
1319	5.80295	3.3098027	218.7717	217.4547	7.015554	33.65590
1320	5.80295	3.3097839	219.0307	217.7119	7.015569	33.65556
1321	5.80214	3.3096769	219.2899	217.9694	7.015729	33.65503
1322	5.80088	3.3096769	219.5487	218.2266	7.015888	33.65616
1323	5.79977	3.3096455	219.8049	218.4811	7.016045	33.65678
1324	5.79891	3.3096141	220.0733	218.7477	7.016171	33.65715
1325	5.79810	3.3096142	220.3261	218.9989	7.016275	33.65782
1326	5.79760	3.3096080	220.5881	219.2592	7.016346	33.65813
1327	5.79709	3.3095829	220.8412	219.5106	7.016426	33.65822
1328	5.79674	3.3096145	221.0972	219.7649	7.016458	33.65880
1329	5.79628	3.3095831	221.3623	220.0283	7.016536	33.65877
1330	5.79588	3.3095831	221.6245	220.2887	7.016591	33.65904
1331	5.79543	3.3095517	221.8895	220.5520	7.016668	33.65900
1332	5.79492	3.3095077	222.2000	220.8605	7.016759	33.65885
1333	5.79437	3.3094889	222.4960	221.1545	7.016843	33.65905
1334	5.79351	3.3094890	222.7701	221.4269	7.016954	33.65977
1335	5.79260	3.3094576	223.0323	221.6873	7.017086	33.66019
1336	5.79184	3.3094892	223.2883	221.9417	7.017168	33.66117
1337	5.79149	3.3094578	223.5655	222.2170	7.017233	33.66103
1338	5.79119	3.3094579	223.8335	222.4833	7.017276	33.66120
1339	5.79093	3.3094265	224.1020	222.7500	7.017329	33.66096
1340	5.79053	3.3094266	224.3639	223.0101	7.017384	33.66123
1341	5.78992	3.3093951	224.6320	223.2766	7.017480	33.66135
1342	5.78957	3.3094267	224.8974	223.5401	7.017513	33.66192
1343	5.78937	3.3094583	225.1593	223.8003	7.017527	33.66235
1344	5.78912	3.3094269	225.4214	224.0607	7.017580	33.66212
1345	5.78881	3.3094270	225.6926	224.3301	7.017623	33.66228
1346	5.78871	3.3094586	225.9517	224.5875	7.017624	33.66261
1347	5.78856	3.3094272	226.2169	224.8510	7.017665	33.66228
1348	5.78826	3.3093957	226.4820	225.1144	7.017724	33.66209
1349	5.78770	3.3093454	226.7594	225.3899	7.017824	33.66194
1350	5.78685	3.3093014	227.0336	225.6623	7.017958	33.66216
1351	5.78594	3.3092700	227.3018	225.9287	7.018090	33.66257
1352	5.78498	3.3092386	227.5638	226.1890	7.018229	33.66304
1353	5.78402	3.3092198	227.8320	226.4554	7.018361	33.66365
1354	5.78321	3.3092010	228.1095	226.7312	7.018476	33.66411
1355	5.78256	3.3092074	228.3897	227.0095	7.018558	33.66469
1356	5.78205	3.3092075	228.6457	227.2638	7.018625	33.66507
1357	5.78155	3.3092076	228.9017	227.5181	7.018692	33.66544
1358	5.78104	3.3091132	229.1760	227.7905	7.018809	33.66474
1359	5.78008	3.3090755	229.4504	228.0632	7.018951	33.66514
1360	5.77917	3.3090440	229.7154	228.3264	7.019084	33.66555
1361	5.77847	3.3090441	229.9775	228.5868	7.019176	33.66613
1362	5.77796	3.3090442	230.2518	228.8593	7.019243	33.66649
1363	5.77736	3.3090695	230.5107	229.1165	7.019310	33.66725
1364	5.77701	3.3090507	230.7941	229.3980	7.019369	33.66725
1365	5.77660	3.3090445	231.0806	229.6826	7.019428	33.66744
1366	5.77630	3.3090131	231.3427	229.9430	7.019487	33.66726
1367	5.77625	3.3090447	231.6018	230.2004	7.019482	33.66754
1368	5.77610	3.3090196	231.9096	230.5061	7.019521	33.66725
1369	5.77584	3.3090071	232.2113	230.8059	7.019565	33.66721
1370	5.77549	3.3090135	232.5040	231.0966	7.019611	33.66749
1371	5.77509	3.3090073	232.7719	231.3628	7.019670	33.66769
1372	5.77479	3.3090451	233.0433	231.6323	7.019693	33.66828
1373	5.77463	3.3090389	233.3144	231.9016	7.019721	33.66823
1374	5.77443	3.3090138	233.5765	232.1620	7.019764	33.66801
1375	5.77428	3.3090454	233.8479	232.4316	7.019773	33.66838
1376	5.77428	3.3090707	234.1159	232.6978	7.019766	33.66854
1377	5.77418	3.3090456	234.3750	232.9552	7.019797	33.66822
1378	5.77408	3.3090772	234.6522	233.2306	7.019799	33.66854
1379	5.77393	3.3090773	234.9357	233.5122	7.019824	33.66855
1380	5.77373	3.3090773	235.2007	233.7755	7.019854	33.66862
1381	5.77383	3.3090963	235.4690	234.0420	7.019838	33.66860
1382	5.77352	3.3090775	235.7371	234.3083	7.019891	33.66856
1383	5.77337	3.3090776	236.0020	234.5715	7.019915	33.66858
1384	5.77312	3.3090462	236.2673	234.8350	7.019969	33.66834
1385	5.77272	3.3090463	236.5387	235.1046	7.020024	33.66861
1386	5.77226	3.3090464	236.7945	235.3587	7.020085	33.66894
1387	5.77216	3.3090212	237.0749	235.6372	7.020116	33.66861
1388	5.77176	3.3089835	237.3583	235.9188	7.020192	33.66845
1389	5.77125	3.3089836	237.6267	236.1854	7.020259	33.66882
1390	5.77070	3.3089837	237.8916	236.4485	7.020332	33.66924
1391	5.77024	3.3089523	238.1506	236.7058	7.020410	33.66921
1392	5.76979	3.3089650	238.4340	236.9874	7.020465	33.66966
1393	5.76954	3.3089840	238.7265	237.2779	7.020492	33.66998
1394	5.76924	3.3089526	238.9918	237.5414	7.020551	33.66980
1395	5.76893	3.3089527	239.2597	237.8075	7.020594	33.66997
1396	5.76838	3.3089213	239.5249	238.0710	7.020684	33.67003
1397	5.76767	3.3088899	239.7900	238.3343	7.020792	33.67025
1398	5.76712	3.3088899	240.0582	238.6007	7.020866	33.67067
1399	5.76646	3.3088270	240.3263	238.8670	7.020984	33.67048
1400	5.76580	3.3088271	240.5913	239.1303	7.021070	33.67100
1401	5.76525	3.3088272	240.8535	239.3907	7.021143	33.67142
1402	5.76449	3.3087643	241.1218	239.6572	7.021274	33.67133
1403	5.76379	3.3087329	241.3867	239.9204	7.021382	33.67155
1404	5.76308	3.3086826	241.6674	240.1992	7.021501	33.67155
1405	5.76212	3.3086386	241.9626	240.4925	7.021647	33.67186
1406	5.76142	3.3086702	242.2583	240.7862	7.021723	33.67277
1407	5.76076	3.3086703	242.5326	241.0586	7.021809	33.67329
1408	5.76026	3.3086830	242.8008	241.3250	7.021870	33.67380
1409	5.76005	3.3086705	243.0720	241.5944	7.021907	33.67373
1410	5.76005	3.3086706	243.3402	241.8609	7.021913	33.67359
1411	5.75970	3.3086706	243.6111	242.1299	7.021962	33.67381
1412	5.75945	3.3086707	243.8826	242.3996	7.021999	33.67393
1413	5.75905	3.3086708	244.1629	242.6781	7.022055	33.67419
1414	5.75879	3.3086394	244.4495	242.9628	7.022108	33.67394
1415	5.75834	3.3086143	244.7388	243.2501	7.022183	33.67397
1416	5.75784	3.3085451	245.0283	243.5377	7.022287	33.67355
1417	5.75718	3.3085137	245.2965	243.8042	7.022389	33.67371
1418	5.75647	3.3085138	245.5707	244.0765	7.022481	33.67428
1419	5.75602	3.3085328	245.8327	244.3367	7.022532	33.67481
1420	5.75546	3.3085455	246.1129	244.6151	7.022600	33.67537
1421	5.75506	3.3084826	246.3812	244.8816	7.022687	33.67493
1422	5.75446	3.3084890	246.6585	245.1571	7.022764	33.67547
1423	5.75385	3.3084828	246.9421	245.4388	7.022847	33.67586
1424	5.75350	3.3084766	247.2314	245.7261	7.022900	33.67600
1425	5.75304	3.3084829	247.5177	246.0105	7.022959	33.67638
1426	5.75284	3.3085082	247.8044	246.2953	7.022976	33.67672
1427	5.75254	3.3084831	248.0878	246.5768	7.023033	33.67660
1428	5.75234	3.3084517	248.3648	246.8519	7.023080	33.67631
1429	5.75188	3.3084140	248.6331	247.1184	7.023161	33.67620
1430	5.75133	3.3084015	248.9135	247.3970	7.023241	33.67647
1431	5.75083	3.3083890	249.1937	247.6753	7.023316	33.67669
1432	5.75027	3.3083765	249.4772	247.9569	7.023396	33.67696
1433	5.74987	3.3083577	249.7545	248.2323	7.023461	33.67701
1434	5.74941	3.3083578	250.0288	248.5048	7.023523	33.67733
1435	5.74906	3.3083579	250.2907	248.7650	7.023571	33.67755
1436	5.74835	3.3081690	250.5557	249.0282	7.023762	33.67599
1437	5.74639	3.3079423	250.8239	249.2946	7.024125	33.67525
1438	5.74382	3.3078479	251.0983	249.5671	7.024493	33.67661
1439	5.74109	3.3077850	251.3664	249.8334	7.024863	33.67848
1440	5.73908	3.3077851	251.6467	250.1119	7.025114	33.68035
1441	5.73757	3.3077664	251.9635	250.4265	7.025315	33.68149
1442	5.73656	3.3077476	252.2682	250.7292	7.025455	33.68213
1443	5.73565	3.3077540	252.5516	251.0107	7.025568	33.68297
1444	5.73515	3.3077856	252.8168	251.2742	7.025619	33.68370
1445	5.73479	3.3077541	253.0879	251.5434	7.025685	33.68356
1446	5.73459	3.3075086	253.3560	251.8097	7.025843	33.68085
1447	5.73454	3.3077858	253.6242	252.0761	7.025711	33.68390
1448	5.73444	3.3078174	253.8955	252.3456	7.025713	33.68422
1449	5.73449	3.3078175	254.1698	252.6180	7.025713	33.68404
1450	5.73444	3.3077861	254.4379	252.8843	7.025742	33.68360
1451	5.73424	3.3078177	254.7121	253.1567	7.025756	33.68402
1452	5.73434	3.3078429	254.9926	253.4353	7.025737	33.68406
1453	5.73434	3.3078430	255.2577	253.6986	7.025743	33.68393
1454	5.73429	3.3078494	255.5411	253.9801	7.025753	33.68391
1455	5.73429	3.3078495	255.8153	254.2524	7.025759	33.68378
1456	5.73439	3.3078685	256.0895	254.5249	7.025743	33.68376
1457	5.73439	3.3078812	256.3697	254.8031	7.025743	33.68376
1458	5.73444	3.3078813	256.6440	255.0756	7.025743	33.68357
1459	5.73419	3.3079128	256.9118	255.3416	7.025763	33.68405
1460	5.73424	3.3079003	257.1743	255.6023	7.025770	33.68373
1461	5.73404	3.3079319	257.4513	255.8775	7.025784	33.68415
1462	5.73404	3.3079446	257.7288	256.1531	7.025784	33.68415
1463	5.73394	3.3079132	257.9877	256.4103	7.025818	33.68377
1464	5.73383	3.3079637	258.2373	256.6582	7.025810	33.68431
1465	5.73389	3.3079512	258.5059	256.9250	7.025817	33.68399
1466	5.73378	3.3079449	258.7706	257.1879	7.025838	33.68389
1467	5.73363	3.3079639	259.0421	257.4576	7.025853	33.68412
1468	5.73348	3.3079640	259.3041	257.7178	7.025877	33.68414
1469	5.73348	3.3079641	259.5783	257.9901	7.025884	33.68400
1470	5.73333	3.3079768	259.8405	258.2505	7.025901	33.68417
1471	5.73323	3.3080084	260.0904	258.4988	7.025903	33.68450
1472	5.73298	3.3079454	260.3342	258.7409	7.025972	33.68392
1473	5.73247	3.3079140	260.5900	258.9950	7.026056	33.68394
1474	5.73217	3.3079141	260.8340	259.2374	7.026098	33.68412
1475	5.73172	3.3079016	261.0836	259.4853	7.026165	33.68431
1476	5.73116	3.3079143	261.3335	259.7335	7.026232	33.68488
1477	5.73101	3.3079081	261.6168	260.0149	7.026260	33.68482
1478	5.73066	3.3078515	261.9122	260.3083	7.026339	33.68438
1479	5.73005	3.3078201	262.1898	260.5840	7.026435	33.68449
1480	5.72950	3.3078202	262.4519	260.8444	7.026509	33.68491
1481	5.72869	3.3078202	262.7015	261.0923	7.026613	33.68559
1482	5.72834	3.3078455	262.9485	261.3376	7.026648	33.68611
1483	5.72784	3.3078204	263.1950	261.5825	7.026728	33.68621
1484	5.72753	3.3077890	263.4451	261.8309	7.026787	33.68603
1485	5.72713	3.3077891	263.6921	262.0762	7.026842	33.68631
1486	5.72673	3.3077892	263.9478	262.3301	7.026897	33.68658
1487	5.72653	3.3077515	264.2007	262.5814	7.026947	33.68623
1488	5.72607	3.3076948	264.4475	262.8264	7.027037	33.68592
1489	5.72547	3.3077264	264.7066	263.0838	7.027100	33.68675
1490	5.72481	3.3076635	264.9595	263.3350	7.027218	33.68657
1491	5.72421	3.3076321	265.2126	263.5864	7.027314	33.68669
1492	5.72365	3.3076322	265.4621	263.8342	7.027387	33.68712
1493	5.72315	3.3076323	265.7061	264.0766	7.027454	33.68750
1494	5.72270	3.3075757	265.9681	264.3368	7.027545	33.68718
1495	5.72209	3.3075695	266.2271	264.5940	7.027627	33.68759
1496	5.72174	3.3076010	266.4769	264.8421	7.027660	33.68817
1497	5.72139	3.3076011	266.7267	265.0902	7.027708	33.68840
1498	5.72108	3.3075697	266.9797	265.3415	7.027767	33.68822
1499	5.72093	3.3076013	267.2355	265.5956	7.027775	33.68860
1500	5.72073	3.3076014	267.5037	265.8620	7.027806	33.68867
1501	5.72068	3.3076015	267.7507	266.1073	7.027817	33.68860
1502	5.72053	3.3076015	268.0216	266.3763	7.027842	33.68861
1503	5.72038	3.3075764	268.2655	266.6186	7.027879	33.68836
1504	5.72023	3.3076017	268.5215	266.8728	7.027890	33.68867
1505	5.72008	3.3076081	268.7897	267.1392	7.027911	33.68876
1506	5.71992	3.3076019	269.0577	267.4054	7.027939	33.68870
1507	5.71987	3.3076020	269.3107	267.6567	7.027951	33.68863
1508	5.71967	3.3076020	269.5482	267.8926	7.027981	33.68871
1509	5.71927	3.3075769	269.8043	268.1469	7.028049	33.68870
1510	5.71887	3.3076022	270.0572	268.3982	7.028091	33.68926
1511	5.71851	3.3075393	270.3132	268.6524	7.028172	33.68878
1512	5.71796	3.3075394	270.5691	268.9066	7.028246	33.68920
1513	5.71725	3.3075080	270.8130	269.1488	7.028353	33.68943
1514	5.71695	3.3074766	271.0839	269.4179	7.028413	33.68924
1515	5.71660	3.3074830	271.3705	269.7025	7.028459	33.68952
1516	5.71625	3.3074768	271.6446	269.9748	7.028511	33.68967
1517	5.71584	3.3074768	271.9101	270.2384	7.028566	33.68994
1518	5.71529	3.3074769	272.1658	270.4924	7.028640	33.69037
1519	5.71489	3.3074455	272.4184	270.7433	7.028711	33.69029
1520	5.71433	3.3074141	272.6716	270.9948	7.028801	33.69036
1521	5.71358	3.3073638	272.9215	271.2430	7.028925	33.69042
1522	5.71277	3.3073513	273.1712	271.4910	7.029035	33.69096
1523	5.71211	3.3073199	273.4362	271.7542	7.029137	33.69112
1524	5.71146	3.3073074	273.7043	272.0204	7.029229	33.69150
1525	5.71091	3.3072886	273.9696	272.2840	7.029313	33.69171
1526	5.71040	3.3072887	274.2254	272.5380	7.029380	33.69209
1527	5.70980	3.3072887	274.4753	272.7862	7.029459	33.69256
1528	5.70950	3.3072573	274.7312	273.0403	7.029518	33.69238
1529	5.70914	3.3072574	274.9875	273.2949	7.029567	33.69261
1530	5.70884	3.3072386	275.2583	273.5638	7.029620	33.69256
1531	5.70839	3.3072450	275.5234	273.8271	7.029678	33.69295
1532	5.70808	3.3072577	275.7794	274.0814	7.029714	33.69327
1533	5.70788	3.3072263	276.0350	274.3353	7.029761	33.69299
1534	5.70748	3.3072264	276.2942	274.5927	7.029816	33.69326
1535	5.70723	3.3072264	276.5502	274.8469	7.029852	33.69339
1536	5.70703	3.3072454	276.7969	275.0920	7.029872	33.69368
1537	5.70657	3.3072266	277.0561	275.3494	7.029943	33.69379
1538	5.70642	3.3072267	277.3149	275.6064	7.029968	33.69382
1539	5.70637	3.3072268	277.5646	275.8544	7.029980	33.69374
1540	5.70622	3.3072583	277.8148	276.1029	7.029987	33.69413
1541	5.70617	3.3072269	278.0739	276.3603	7.030016	33.69369
1542	5.70602	3.3072144	278.3386	276.6232	7.030047	33.69357
1543	5.70597	3.3072271	278.5856	276.8684	7.030052	33.69364
1544	5.70582	3.3072587	278.8414	277.1225	7.030060	33.69402
1545	5.70547	3.3072588	279.1034	277.3828	7.030109	33.69424
1546	5.70541	3.3072588	279.3469	277.6246	7.030120	33.69417
1547	5.70536	3.3072841	279.6092	277.8851	7.030119	33.69438
1548	5.70521	3.3072590	279.8681	278.1422	7.030157	33.69412
1549	5.70491	3.3072339	280.1426	278.4148	7.030213	33.69400
1550	5.70466	3.3072277	280.4168	278.6871	7.030253	33.69404
1551	5.70400	3.3071711	280.6849	278.9534	7.030368	33.69392
1552	5.70350	3.3071649	280.9500	279.2166	7.030439	33.69422
1553	5.70290	3.3071650	281.2057	279.4707	7.030518	33.69470
1554	5.70229	3.3071336	281.4984	279.7613	7.030615	33.69480
1555	5.70189	3.3070959	281.7697	280.0308	7.030690	33.69464
1556	5.70144	3.3071337	282.0286	280.2879	7.030732	33.69539
1557	5.70083	3.3070960	282.2934	280.5509	7.030831	33.69544
1558	5.70048	3.3071339	282.5494	280.8051	7.030860	33.69609
1559	5.70033	3.3071340	282.7961	281.0502	7.030884	33.69612
1560	5.70003	3.3071341	283.0432	281.2956	7.030926	33.69630
1561	5.70003	3.3071342	283.2991	281.5497	7.030932	33.69617
1562	5.70003	3.3071342	283.5549	281.8037	7.030938	33.69604
1563	5.69997	3.3071595	283.8110	282.0580	7.030937	33.69625
1564	5.69987	3.3071659	284.0697	282.3150	7.030952	33.69630
1565	5.69982	3.3071660	284.3348	282.5783	7.030964	33.69622
1566	5.69972	3.3071976	284.5847	282.8265	7.030965	33.69655
1567	5.69982	3.3071976	284.8405	283.0805	7.030959	33.69632
1568	5.69962	3.3071662	285.0967	283.3349	7.031006	33.69604
1569	5.69937	3.3071600	285.3434	283.5800	7.031045	33.69610
1570	5.69927	3.3071349	285.6022	283.8370	7.031077	33.69579
1571	5.69892	3.3071350	285.8552	284.0882	7.031125	33.69601
1572	5.69867	3.3071540	286.1265	284.3577	7.031152	33.69634
1573	5.69841	3.3071667	286.3825	284.6119	7.031182	33.69661
1574	5.69841	3.3071919	286.6441	284.8717	7.031175	33.69677
1575	5.69816	3.3071668	286.8943	285.1203	7.031225	33.69661
1576	5.69796	3.3071984	287.1468	285.3710	7.031239	33.69704
1577	5.69786	3.3071985	287.4031	285.6255	7.031257	33.69701
1578	5.69781	3.3071986	287.6589	285.8796	7.031269	33.69694
1579	5.69776	3.3071986	287.9180	286.1368	7.031281	33.69686
1580	5.69761	3.3071987	288.1673	286.3845	7.031305	33.69689
1581	5.69771	3.3072177	288.4296	286.6450	7.031289	33.69687
1582	5.69766	3.3072304	288.6762	286.8899	7.031294	33.69694
1583	5.69756	3.3072305	288.9293	287.1412	7.031312	33.69692
1584	5.69741	3.3072368	289.2035	287.4136	7.031333	33.69700
1585	5.69736	3.3072306	289.4564	287.6647	7.031348	33.69686
1586	5.69731	3.3072622	289.7062	287.9127	7.031344	33.69714
1587	5.69736	3.3072623	289.9499	288.1548	7.031343	33.69697
1588	5.69726	3.3072624	290.2030	288.4062	7.031361	33.69695
1589	5.69715	3.3072624	290.4589	288.6603	7.031379	33.69692
1590	5.69710	3.3072940	290.7059	288.9056	7.031375	33.69721
1591	5.69700	3.3072626	290.9492	289.1472	7.031409	33.69683
1592	5.69685	3.3073131	291.2113	289.4075	7.031407	33.69742
1593	5.69685	3.3072943	291.4824	289.6767	7.031423	33.69707
1594	5.69690	3.3072944	291.7628	289.9552	7.031423	33.69688
1595	5.69695	3.3073259	292.0248	290.2154	7.031407	33.69706
1596	5.69680	3.3073575	292.2716	290.4605	7.031414	33.69745
1597	5.69655	3.3073261	292.5243	290.7114	7.031467	33.69722
1598	5.69650	3.3073388	292.7742	290.9596	7.031472	33.69728
1599	5.69645	3.3073577	293.0179	291.2016	7.031474	33.69743
1600	5.69645	3.3073578	293.2650	291.4470	7.031480	33.69731
1601	5.69645	3.3073579	293.5235	291.7038	7.031486	33.69718
1602	5.69630	3.3073580	293.7946	291.9730	7.031510	33.69720
1603	5.69620	3.3073896	294.0417	292.2184	7.031512	33.69753
1604	5.69630	3.3073896	294.2883	292.4633	7.031505	33.69731
1605	5.69620	3.3073897	294.5444	292.7176	7.031523	33.69728
1606	5.69600	3.3073709	294.7852	292.9567	7.031563	33.69715
1607	5.69590	3.3073899	295.0441	293.2139	7.031571	33.69734
1608	5.69559	3.3073900	295.2970	293.4650	7.031614	33.69751
1609	5.69564	3.3074215	295.5528	293.7191	7.031597	33.69769
1610	5.69559	3.3074342	295.7963	293.9608	7.031602	33.69777
1611	5.69539	3.3074217	296.0464	294.2092	7.031639	33.69770
1612	5.69539	3.3074344	296.3145	294.4754	7.031639	33.69771
1613	5.69549	3.3074534	296.5643	294.7235	7.031622	33.69770
1614	5.69544	3.3074534	296.8144	294.9719	7.031634	33.69763
1615	5.69539	3.3074535	297.0701	295.2259	7.031646	33.69755
1616	5.69534	3.3074662	297.3137	295.4678	7.031651	33.69762
1617	5.69524	3.3074852	297.5665	295.7188	7.031659	33.69781
1618	5.69514	3.3074853	297.8195	295.9700	7.031677	33.69779
1619	5.69509	3.3074853	298.0724	296.2212	7.031689	33.69771
1620	5.69499	3.3074854	298.3283	296.4753	7.031707	33.69769
1621	5.69489	3.3075170	298.5721	296.7175	7.031709	33.69802
1622	5.69494	3.3074919	298.8342	296.9777	7.031722	33.69756
1623	5.69474	3.3075172	299.0807	297.2225	7.031739	33.69792
1624	5.69474	3.3075172	299.3277	297.4678	7.031744	33.69780
1625	5.69464	3.3075047	299.5926	297.7308	7.031769	33.69763
1626	5.69459	3.3075111	299.8578	297.9942	7.031778	33.69762
1627	5.69454	3.3075490	300.1255	298.2601	7.031771	33.69796
1628	5.69443	3.3075617	300.3848	298.5175	7.031782	33.69808
1629	5.69443	3.3075240	300.6436	298.7745	7.031808	33.69752
1630	5.69418	3.3075555	300.8935	299.0227	7.031828	33.69801
1631	5.69393	3.3075493	301.1464	299.2739	7.031867	33.69806
1632	5.69393	3.3075494	301.3992	299.5250	7.031873	33.69794
1633	5.69373	3.3075495	301.6672	299.7910	7.031904	33.69801
1634	5.69373	3.3075811	301.9325	300.0545	7.031893	33.69823
1635	5.69368	3.3075812	302.1974	300.3176	7.031906	33.69815
1636	5.69363	3.3075812	302.4533	300.5717	7.031918	33.69808
1637	5.69348	3.3076128	302.6939	300.8107	7.031925	33.69846
1638	5.69353	3.3076129	302.9409	301.0559	7.031924	33.69829
1639	5.69363	3.3076445	303.1875	301.3008	7.031901	33.69843
1640	5.69343	3.3076445	303.4407	301.5522	7.031932	33.69850
1641	5.69358	3.3076446	303.6966	301.8063	7.031919	33.69822
1642	5.69353	3.3076762	303.9555	302.0634	7.031915	33.69850
1643	5.69348	3.3077078	304.2145	302.3207	7.031910	33.69878
1644	5.69368	3.3076764	304.4580	302.5624	7.031908	33.69810
1645	5.69368	3.3077079	304.7077	302.8105	7.031897	33.69834
1646	5.69373	3.3077332	304.9545	303.0555	7.031883	33.69845
1647	5.69383	3.3077396	305.2046	303.3039	7.031873	33.69830
1648	5.69383	3.3077397	305.4301	303.5279	7.031879	33.69819
1649	5.69378	3.3078027	305.6156	303.7120	7.031856	33.69886
1650	5.69383	3.3079602	305.7410	303.8366	7.031771	33.70053
1651	5.69378	3.3080548	305.7988	303.8939	7.031729	33.70162
1652	5.69393	3.3080484	305.7806	303.8759	7.031713	33.70140
1653	5.69449	3.3080547	305.7471	303.8426	7.031642	33.70094
1654	5.69504	3.3081177	305.7110	303.8067	7.031541	33.70112
1655	5.69554	3.3081303	305.6899	303.7858	7.031472	33.70077
1656	5.69584	3.3081177	305.7113	303.8071	7.031443	33.70031
1657	5.69600	3.3081492	305.7359	303.8315	7.031408	33.70051
1658	5.69590	3.3081870	305.7573	303.8528	7.031401	33.70102
1659	5.69615	3.3082500	305.7787	303.8739	7.031338	33.70147
1660	5.69630	3.3083445	305.7726	303.8679	7.031271	33.70239
1661	5.69650	3.3083697	305.7605	303.8559	7.031233	33.70248
1662	5.69645	3.3084075	305.7577	303.8531	7.031219	33.70296
1663	5.69650	3.3084768	305.7610	303.8564	7.031177	33.70370
1664	5.69645	3.3084390	305.7612	303.8566	7.031203	33.70332
1665	5.69655	3.3084390	305.7825	303.8778	7.031191	33.70321
1666	5.69650	3.3084390	305.7887	303.8840	7.031197	33.70325
1667	5.69660	3.3085335	305.7890	303.8842	7.031136	33.70422
1668	5.69680	3.3085965	305.7802	303.8755	7.031078	33.70474
1669	5.69705	3.3086406	305.7864	303.8816	7.031025	33.70498
1670	5.69700	3.3086280	305.7835	303.8787	7.031037	33.70489
1671	5.69705	3.3085965	305.7929	303.8880	7.031048	33.70448
1672	5.69705	3.3085965	305.8053	303.9004	7.031048	33.70447
1673	5.69705	3.3086280	305.8144	303.9094	7.031032	33.70483
1674	5.69715	3.3086910	305.8083	303.9034	7.030987	33.70544
1675	5.69715	3.3087792	305.8025	303.8976	7.030941	33.70644
1676	5.69741	3.3086910	305.7844	303.8797	7.030955	33.70520
1677	5.69781	3.3085650	305.7148	303.8105	7.030970	33.70341
1678	5.69942	3.3085334	305.6297	303.7261	7.030789	33.70149
1679	5.70083	3.3085649	305.5203	303.6173	7.030598	33.70049
1680	5.70133	3.3085648	305.4107	303.5085	7.030534	33.70004
1681	5.70164	3.3085648	305.2919	303.3906	7.030495	33.69980
1682	5.70189	3.3085648	305.1611	303.2607	7.030461	33.69961
1683	5.70214	3.3085962	305.0332	303.1337	7.030411	33.69978
1684	5.70219	3.3085962	304.8904	302.9918	7.030402	33.69980
1685	5.70234	3.3085520	304.7322	302.8347	7.030403	33.69923
1686	5.70264	3.3085331	304.5859	302.6895	7.030372	33.69879
1687	5.70285	3.3085015	304.4404	302.5450	7.030361	33.69830
1688	5.70310	3.3085015	304.2792	302.3849	7.030327	33.69813
1689	5.70320	3.3084573	304.1238	302.2306	7.030334	33.69761
1690	5.70315	3.3084699	303.9687	302.0765	7.030330	33.69788
1691	5.70295	3.3084698	303.8136	301.9226	7.030351	33.69815
1692	5.70290	3.3085013	303.6587	301.7687	7.030337	33.69864
1693	5.70290	3.3084697	303.4943	301.6055	7.030350	33.69836
1694	5.70280	3.3084697	303.3239	301.4363	7.030358	33.69855
1695	5.70264	3.3084570	303.1536	301.2672	7.030379	33.69864
1696	5.70275	3.3084695	302.9768	301.0916	7.030356	33.69877
1697	5.70280	3.3084758	302.7946	300.9106	7.030343	33.69888
1698	5.70300	3.3084694	302.6119	300.7292	7.030317	33.69870
1699	5.70300	3.3085009	302.4415	300.5600	7.030297	33.69914
1700	5.70325	3.3084882	302.2559	300.3757	7.030269	33.69884
1701	5.70350	3.3085008	302.0675	300.1886	7.030227	33.69882
1702	5.70360	3.3084692	301.8820	300.0044	7.030227	33.69845
1703	5.70400	3.3084376	301.6842	299.8080	7.030190	33.69779
1704	5.70431	3.3084376	301.4894	299.6145	7.030149	33.69759
1705	5.70451	3.3084690	301.3007	299.4271	7.030103	33.69784
1706	5.70476	3.3084563	301.1121	299.2398	7.030075	33.69754
1707	5.70491	3.3084185	300.9171	299.0462	7.030072	33.69705
1708	5.70501	3.3084058	300.7105	298.8410	7.030062	33.69691
1709	5.70511	3.3083742	300.5126	298.6445	7.030061	33.69655
1710	5.70536	3.3083742	300.3150	298.4483	7.030026	33.69640
1711	5.70572	3.3083741	300.1170	298.2516	7.029979	33.69615
1712	5.70587	3.3083677	299.9195	298.0555	7.029959	33.69602
1713	5.70602	3.3084181	299.7186	297.8560	7.029910	33.69654
1714	5.70627	3.3084054	299.5148	297.6536	7.029881	33.69625
1715	5.70637	3.3084054	299.3140	297.4542	7.029864	33.69625
1716	5.70632	3.3084368	299.1223	297.2639	7.029850	33.69675
1717	5.70637	3.3084052	298.9216	297.0645	7.029855	33.69644
1718	5.70652	3.3084682	298.7054	296.8499	7.029799	33.69711
1719	5.70652	3.3084870	298.4894	296.6353	7.029784	33.69743
1720	5.70672	3.3084680	298.2885	296.4358	7.029765	33.69711
1721	5.70693	3.3084680	298.0817	296.2305	7.029736	33.69701
1722	5.70693	3.3084364	297.8777	296.0279	7.029748	33.69676
1723	5.70688	3.3084363	297.6647	295.8163	7.029749	33.69691
1724	5.70698	3.3084048	297.4608	295.6139	7.029748	33.69656
1725	5.70723	3.3083732	297.2479	295.4024	7.029729	33.69606
1726	5.70743	3.3083353	297.0438	295.1997	7.029720	33.69553
1727	5.70778	3.3083352	296.8250	294.9824	7.029672	33.69528
1728	5.70803	3.3083100	296.5909	294.7499	7.029649	33.69486
1729	5.70829	3.3083099	296.3897	294.5501	7.029614	33.69471
1730	5.70859	3.3083350	296.1680	294.3300	7.029559	33.69481
1731	5.70879	3.3083665	295.9608	294.1242	7.029513	33.69506
1732	5.70894	3.3083979	295.7265	293.8915	7.029473	33.69538
1733	5.70929	3.3084356	295.5105	293.6771	7.029406	33.69557
1734	5.70950	3.3084040	295.3004	293.4684	7.029393	33.69511
1735	5.70960	3.3084040	295.0813	293.2508	7.029375	33.69512
1736	5.70980	3.3084417	294.8593	293.0303	7.029326	33.69546
1737	5.70995	3.3084353	294.6340	292.8066	7.029306	33.69535
1738	5.71010	3.3084668	294.4182	292.5922	7.029266	33.69566
1739	5.71020	3.3084352	294.2050	292.3806	7.029265	33.69531
1740	5.71030	3.3084036	293.9858	292.1629	7.029265	33.69496
1741	5.71040	3.3083343	293.7667	291.9453	7.029283	33.69418
1742	5.71050	3.3082775	293.5569	291.7370	7.029296	33.69354
1743	5.71060	3.3082459	293.3287	291.5103	7.029295	33.69320
1744	5.71075	3.3081828	293.1124	291.2955	7.029304	33.69244
1745	5.71091	3.3081450	292.8935	291.0781	7.029301	33.69197
1746	5.71116	3.3081134	292.6745	290.8606	7.029281	33.69147
1747	5.71126	3.3080944	292.4615	290.6491	7.029274	33.69127
1748	5.71101	3.3081133	292.2422	290.4313	7.029290	33.69184
1749	5.71111	3.3080817	292.0232	290.2138	7.029289	33.69149
1750	5.71091	3.3080186	291.7766	289.9690	7.029341	33.69110
1751	5.71070	3.3080060	291.5333	289.7273	7.029366	33.69128
1752	5.71030	3.3079870	291.3111	289.5067	7.029420	33.69158
1753	5.71010	3.3080184	291.0919	289.2889	7.029423	33.69224
1754	5.70995	3.3080184	290.8729	289.0714	7.029437	33.69250
1755	5.70980	3.3079868	290.6477	288.8478	7.029466	33.69241
1756	5.70990	3.3080308	290.4136	288.6153	7.029426	33.69292
1757	5.70995	3.3080496	290.1823	288.3856	7.029405	33.69320
1758	5.70995	3.3081126	289.9631	288.1679	7.029367	33.69402
1759	5.71020	3.3081440	289.7438	287.9502	7.029315	33.69423
1760	5.71015	3.3081439	289.5215	287.7293	7.029316	33.69439
1761	5.71040	3.3081438	289.2873	287.4968	7.029280	33.69426
1762	5.71060	3.3081123	289.0441	287.2552	7.029266	33.69382
1763	5.71081	3.3080177	288.8098	287.0225	7.029286	33.69267
1764	5.71091	3.3080176	288.5723	286.7866	7.029268	33.69268
1765	5.71091	3.3079231	288.3534	286.5693	7.029312	33.69172
1766	5.71070	3.3079167	288.1156	286.3332	7.029335	33.69197
1767	5.71091	3.3079418	287.8753	286.0945	7.029291	33.69217
1768	5.71091	3.3078787	287.6470	285.8677	7.029319	33.69157
1769	5.71081	3.3078283	287.4220	285.6443	7.029352	33.69122
1770	5.71060	3.3077778	287.1755	285.3995	7.029398	33.69097
1771	5.71060	3.3077651	286.9412	285.1668	7.029399	33.69094
1772	5.71070	3.3077336	286.7160	284.9432	7.029398	33.69060
1773	5.71050	3.3077020	286.4875	284.7163	7.029434	33.69055
1774	5.71010	3.3076704	286.2716	284.5018	7.029494	33.69071
1775	5.70965	3.3076704	286.0281	284.2600	7.029544	33.69128
1776	5.70924	3.3076703	285.7848	284.0183	7.029587	33.69180
1777	5.70914	3.3077017	285.5564	283.7915	7.029578	33.69237
1778	5.70924	3.3076386	285.3374	283.5740	7.029594	33.69167
1779	5.70914	3.3076071	285.1151	283.3532	7.029617	33.69152
1780	5.70919	3.3075881	284.8688	283.1086	7.029615	33.69138
1781	5.70929	3.3075754	284.6283	282.8697	7.029604	33.69125
1782	5.70924	3.3076194	284.3878	282.6309	7.029582	33.69192
1783	5.70929	3.3076698	284.1475	282.3923	7.029544	33.69256
1784	5.70914	3.3077642	283.9281	282.1744	7.029508	33.69389
1785	5.70929	3.3077641	283.6970	281.9448	7.029484	33.69385
1786	5.70914	3.3077955	283.4720	281.7214	7.029481	33.69447
1787	5.70904	3.3078270	283.2468	281.4977	7.029472	33.69504
1788	5.70894	3.3078773	283.0122	281.2647	7.029453	33.69582
1789	5.70854	3.3079213	282.7898	281.0439	7.029474	33.69683
1790	5.70793	3.3079213	282.5587	280.8144	7.029542	33.69755
1791	5.70723	3.3078582	282.3397	280.5969	7.029656	33.69765
1792	5.70652	3.3078266	282.1115	280.3702	7.029753	33.69811
1793	5.70602	3.3077951	281.8770	280.1373	7.029825	33.69837
1794	5.70572	3.3077320	281.6426	279.9046	7.029890	33.69808
1795	5.70536	3.3076374	281.3993	279.6629	7.029976	33.69748
1796	5.70496	3.3075429	281.1739	279.4391	7.030069	33.69693
1797	5.70441	3.3074483	280.9457	279.2124	7.030181	33.69652
1798	5.70426	3.3074168	280.7143	278.9826	7.030210	33.69643
1799	5.70421	3.3073852	280.4892	278.7590	7.030228	33.69624
1800	5.70426	3.3073662	280.2670	278.5384	7.030226	33.69608
1801	5.70411	3.3073536	280.0357	278.3086	7.030246	33.69621
1802	5.70405	3.3073220	279.8016	278.0761	7.030263	33.69602
1803	5.70390	3.3072904	279.5670	277.8431	7.030293	33.69593
1804	5.70380	3.3072588	279.3388	277.6165	7.030316	33.69578
1805	5.70375	3.3072588	279.1135	277.3928	7.030317	33.69595
1806	5.70370	3.3072209	278.8641	277.1450	7.030337	33.69569
1807	5.70390	3.3072145	278.6115	276.8942	7.030310	33.69554
1808	5.70421	3.3072270	278.3711	276.6554	7.030262	33.69550
1809	5.70436	3.3071955	278.1457	276.4315	7.030255	33.69511
1810	5.70451	3.3072143	277.9114	276.1989	7.030221	33.69529
1811	5.70471	3.3071890	277.6740	275.9631	7.030204	33.69492
1812	5.70486	3.3071575	277.4336	275.7243	7.030197	33.69453
1813	5.70506	3.3071637	277.1929	275.4853	7.030163	33.69452
1814	5.70531	3.3071573	276.9616	275.2555	7.030131	33.69431
1815	5.70557	3.3071320	276.7272	275.0228	7.030108	33.69389
1816	5.70587	3.3071634	276.5051	274.8021	7.030050	33.69406
1817	5.70622	3.3071319	276.2711	274.5697	7.030018	33.69346
1818	5.70642	3.3071318	276.0396	274.3399	7.029988	33.69338
1819	5.70652	3.3071254	275.8080	274.1098	7.029974	33.69332
1820	5.70677	3.3071316	275.5740	273.8774	7.029934	33.69326
1821	5.70698	3.3071316	275.3487	273.6537	7.029905	33.69317
1822	5.70723	3.3070937	275.1022	273.4088	7.029888	33.69261
1823	5.70743	3.3071314	274.8677	273.1760	7.029839	33.69295
1824	5.70758	3.3070935	274.6395	272.9492	7.029835	33.69249
1825	5.70778	3.3071313	274.4111	272.7224	7.029785	33.69283
1826	5.70783	3.3070934	274.1770	272.4899	7.029793	33.69246
1827	5.70798	3.3070618	273.9425	272.2570	7.029786	33.69207
1828	5.70819	3.3070933	273.7205	272.0366	7.029740	33.69234
1829	5.70844	3.3070932	273.4828	271.8004	7.029704	33.69220
1830	5.70859	3.3070616	273.2549	271.5741	7.029697	33.69181
1831	5.70879	3.3070615	273.0236	271.3443	7.029667	33.69172
1832	5.70879	3.3070615	272.7858	271.1082	7.029662	33.69184
1833	5.70904	3.3070614	272.5547	270.8787	7.029626	33.69170
1834	5.70899	3.3070613	272.3200	270.6456	7.029626	33.69187
1835	5.70944	3.3070297	272.0828	270.4100	7.029582	33.69118
1836	5.70970	3.3070297	271.8515	270.1803	7.029546	33.69104
1837	5.70995	3.3070359	271.6082	269.9386	7.029507	33.69098
1838	5.71055	3.3070358	271.3462	269.6783	7.029427	33.69051
1839	5.71116	3.3070609	271.0873	269.4213	7.029335	33.69032
1840	5.71176	3.3070923	270.8472	269.1828	7.029239	33.69019
1841	5.71217	3.3070922	270.6157	268.9528	7.029185	33.68990
1842	5.71267	3.3071236	270.3874	268.7261	7.029102	33.68987
1843	5.71302	3.3070921	270.1533	268.4935	7.029070	33.68928
1844	5.71332	3.3070920	269.9246	268.2665	7.029028	33.68909
1845	5.71358	3.3071297	269.6965	268.0399	7.028972	33.68938
1846	5.71388	3.3070918	269.4622	267.8072	7.028950	33.68877
1847	5.71423	3.3071296	269.2279	267.5744	7.028882	33.68896
1848	5.71458	3.3070917	268.9933	267.3414	7.028853	33.68829
1849	5.71509	3.3071231	268.7590	267.1088	7.028770	33.68826
1850	5.71549	3.3071293	268.5216	266.8730	7.028713	33.68805
1851	5.71589	3.3070914	268.2811	266.6341	7.028678	33.68734
1852	5.71640	3.3070914	268.0439	266.3985	7.028611	33.68695
1853	5.71680	3.3071291	267.8095	266.1657	7.028537	33.68710
1854	5.71710	3.3071605	267.5844	265.9421	7.028479	33.68726
1855	5.71751	3.3071604	267.3528	265.7121	7.028424	33.68697
1856	5.71771	3.3071226	267.1185	265.4794	7.028414	33.68646
1857	5.71796	3.3071603	266.8962	265.2586	7.028359	33.68675
1858	5.71821	3.3071287	266.6591	265.0231	7.028339	33.68626
1859	5.71846	3.3071601	266.4273	264.7929	7.028287	33.68648
1860	5.71882	3.3071600	266.1933	264.5605	7.028238	33.68624
1861	5.71882	3.3071411	265.9496	264.3184	7.028243	33.68615
1862	5.71912	3.3071599	265.7124	264.0828	7.028191	33.68618
1863	5.71922	3.3071598	265.4745	263.8465	7.028173	33.68619
1864	5.71947	3.3071534	265.2373	263.6110	7.028140	33.68599
1865	5.71972	3.3071534	265.0093	263.3845	7.028104	33.68585
1866	5.71982	3.3071533	264.7657	263.1425	7.028087	33.68587
1867	5.72003	3.3071280	264.5281	262.9066	7.028070	33.68550
1868	5.72013	3.3071279	264.2968	262.6768	7.028052	33.68552
1869	5.72038	3.3071279	264.0685	262.4501	7.028016	33.68538
1870	5.72053	3.3071278	263.8310	262.2142	7.027992	33.68534
1871	5.72073	3.3071277	263.6029	261.9875	7.027963	33.68526
1872	5.72098	3.3071402	263.3563	261.7426	7.027920	33.68527
1873	5.72134	3.3071779	263.1005	261.4886	7.027851	33.68547
1874	5.72144	3.3071590	262.8570	261.2467	7.027844	33.68528
1875	5.72194	3.3071904	262.6286	261.0199	7.027761	33.68524
1876	5.72244	3.3072218	262.3884	260.7813	7.027677	33.68522
1877	5.72310	3.3072091	262.1569	260.5514	7.027599	33.68454
1878	5.72355	3.3071901	261.9166	260.3127	7.027548	33.68399
1879	5.72396	3.3072215	261.6760	260.0737	7.027477	33.68406
1880	5.72426	3.3072530	261.4386	259.8379	7.027419	33.68423
1881	5.72476	3.3072844	261.2073	259.6081	7.027336	33.68420
1882	5.72491	3.3072843	260.9725	259.3750	7.027312	33.68417
1883	5.72552	3.3072590	260.7291	259.1332	7.027246	33.68340
1884	5.72602	3.3072841	260.5011	258.9067	7.027166	33.68329
1885	5.72643	3.3072715	260.2576	258.6649	7.027118	33.68287
1886	5.72683	3.3072840	260.0263	258.4351	7.027057	33.68273
1887	5.72728	3.3072839	259.7888	258.1993	7.026997	33.68239
1888	5.72779	3.3073153	259.5604	257.9724	7.026914	33.68236
1889	5.72824	3.3073467	259.3261	257.7396	7.026837	33.68238
1890	5.72864	3.3073467	259.0886	257.5038	7.026782	33.68209
1891	5.72910	3.3073592	258.8632	257.2798	7.026716	33.68189
1892	5.72945	3.3073780	258.6289	257.0472	7.026657	33.68187
1893	5.72975	3.3073779	258.3976	256.8174	7.026615	33.68168
1894	5.73031	3.3074030	258.1570	256.5784	7.026529	33.68154
1895	5.73071	3.3074219	257.9044	256.3275	7.026465	33.68147
1896	5.73106	3.3074092	257.6672	256.0919	7.026423	33.68110
1897	5.73142	3.3074532	257.4327	255.8590	7.026352	33.68136
1898	5.73177	3.3074531	257.1889	255.6169	7.026303	33.68113
1899	5.73207	3.3074530	256.9455	255.3751	7.026261	33.68095
1900	5.73227	3.3074530	256.7083	255.1395	7.026231	33.68086
1901	5.73268	3.3074403	256.4585	254.8914	7.026183	33.68044
1902	5.73278	3.3074402	256.2302	254.6646	7.026165	33.68045
1903	5.73308	3.3074401	256.0019	254.4379	7.026123	33.68026
1904	5.73313	3.3074526	255.7708	254.2083	7.026105	33.68047
1905	5.73333	3.3074400	255.5362	253.9753	7.026082	33.68024
1906	5.73348	3.3074399	255.2959	253.7365	7.026058	33.68021
1907	5.73358	3.3074146	255.0521	253.4944	7.026053	33.67995
1908	5.73383	3.3074523	254.8026	253.2466	7.025997	33.68025
1909	5.73394	3.3074082	254.5714	253.0170	7.026003	33.67976
1910	5.73409	3.3074207	254.3306	252.7778	7.025972	33.67987
1911	5.73424	3.3074080	254.0964	252.5452	7.025955	33.67970
1912	5.73439	3.3074079	253.8651	252.3154	7.025932	33.67966
1913	5.73444	3.3074079	253.6366	252.0884	7.025920	33.67972
1914	5.73454	3.3073889	253.3994	251.8528	7.025912	33.67953
1915	5.73449	3.3073762	253.1711	251.6260	7.025920	33.67955
1916	5.73454	3.3074076	252.9334	251.3900	7.025892	33.67997
1917	5.73459	3.3074076	252.7021	251.1602	7.025881	33.68003
1918	5.73454	3.3073760	252.4677	250.9274	7.025898	33.67984
1919	5.73469	3.3073759	252.2332	250.6945	7.025874	33.67981
1920	5.73449	3.3073570	252.0021	250.4649	7.025903	33.67991
1921	5.73444	3.3073443	251.7614	250.2258	7.025910	33.67994
1922	5.73444	3.3073442	251.5303	249.9963	7.025905	33.68005
1923	5.73454	3.3073441	251.2775	249.7452	7.025887	33.68008
1924	5.73449	3.3073126	251.0494	249.5185	7.025904	33.67988
1925	5.73459	3.3073125	250.8117	249.2825	7.025887	33.67990
1926	5.73454	3.3072683	250.5804	249.0527	7.025910	33.67957
1927	5.73454	3.3072808	250.3459	248.8197	7.025899	33.67983
1928	5.73459	3.3072808	250.1143	248.5897	7.025887	33.67989
1929	5.73454	3.3072870	249.8710	248.3481	7.025885	33.68013
1930	5.73479	3.3072491	249.6306	248.1093	7.025868	33.67957
1931	5.73494	3.3072490	249.3748	247.8552	7.025844	33.67955
1932	5.73535	3.3072678	249.1312	247.6132	7.025779	33.67948
1933	5.73570	3.3072804	248.8939	247.3775	7.025724	33.67939
1934	5.73641	3.3072803	248.6560	247.1412	7.025633	33.67880
1935	5.73721	3.3073432	248.4250	246.9117	7.025497	33.67883
1936	5.73822	3.3073746	248.1846	246.6730	7.025353	33.67829
1937	5.73903	3.3073745	247.9532	246.4431	7.025249	33.67761
1938	5.73978	3.3074185	247.7218	246.2133	7.025129	33.67746
1939	5.74084	3.3074688	247.4906	245.9836	7.024969	33.67709
1940	5.74190	3.3075003	247.2561	245.7506	7.024818	33.67651
1941	5.74291	3.3075317	247.0216	245.5177	7.024674	33.67598
1942	5.74417	3.3075694	246.7811	245.2788	7.024496	33.67527
1943	5.74513	3.3075945	246.5375	245.0368	7.024360	33.67472
1944	5.74598	3.3076574	246.2998	244.8008	7.024218	33.67469
1945	5.74689	3.3076888	246.0716	244.5741	7.024086	33.67426
1946	5.74770	3.3077202	245.8374	244.3414	7.023966	33.67392
1947	5.74846	3.3077516	245.6030	244.1086	7.023853	33.67364
1948	5.74931	3.3077515	245.3656	243.8728	7.023743	33.67290
1949	5.74972	3.3078145	245.1281	243.6369	7.023656	33.67333
1950	5.75047	3.3078144	244.8843	243.3947	7.023558	33.67270
1951	5.75113	3.3078143	244.6563	243.1682	7.023473	33.67216
1952	5.75153	3.3078394	244.4157	242.9292	7.023406	33.67216
1953	5.75204	3.3078456	244.1904	242.7054	7.023336	33.67184
1954	5.75239	3.3078141	243.9590	242.4755	7.023304	33.67125
1955	5.75269	3.3078581	243.7153	242.2335	7.023239	33.67156
1956	5.75304	3.3078769	243.4659	241.9858	7.023181	33.67155
1957	5.75345	3.3078768	243.2192	241.7407	7.023126	33.67127
1958	5.75380	3.3079271	242.9727	241.4958	7.023051	33.67161
1959	5.75436	3.3079396	242.7352	241.2599	7.022972	33.67132
1960	5.75496	3.3079396	242.5038	241.0300	7.022893	33.67083
1961	5.75552	3.3079710	242.2663	240.7942	7.022804	33.67075
1962	5.75597	3.3079709	242.0380	240.5674	7.022743	33.67041
1963	5.75642	3.3079834	241.7915	240.3225	7.022676	33.67022
1964	5.75683	3.3079707	241.5478	240.0804	7.022628	33.66980
1965	5.75713	3.3080022	241.2952	239.8295	7.022569	33.66998
1966	5.75748	3.3080021	241.0426	239.5785	7.022521	33.66975
1967	5.75778	3.3080335	240.8049	239.3425	7.022462	33.66992
1968	5.75834	3.3080334	240.5642	239.1034	7.022389	33.66949
1969	5.75894	3.3080144	240.3360	238.8767	7.022320	33.66878
1970	5.75950	3.3080017	240.0925	238.6348	7.022254	33.66821
1971	5.76021	3.3080332	239.8583	238.4021	7.022146	33.66798
1972	5.76081	3.3080961	239.6300	238.1754	7.022035	33.66820
1973	5.76157	3.3081653	239.3923	237.9393	7.021901	33.66835
1974	5.76248	3.3081967	239.1609	237.7093	7.021769	33.66791
1975	5.76338	3.3081966	238.9295	237.4795	7.021654	33.66712
1976	5.76404	3.3082595	238.6982	237.2497	7.021536	33.66729
1977	5.76475	3.3082595	238.4485	237.0017	7.021445	33.66671
1978	5.76545	3.3082909	238.1988	236.7537	7.021337	33.66649
1979	5.76601	3.3082908	237.9677	236.5241	7.021264	33.66605
1980	5.76651	3.3083222	237.7301	236.2881	7.021181	33.66602
1981	5.76676	3.3083158	237.4985	236.0581	7.021148	33.66581
1982	5.76722	3.3083536	237.2642	235.8253	7.021068	33.66590
1983	5.76777	3.3083724	237.0177	235.5804	7.020985	33.66569
1984	5.76828	3.3083849	236.7681	235.3325	7.020912	33.66545
1985	5.76858	3.3084100	236.5335	235.0994	7.020857	33.66555
1986	5.76908	3.3083847	236.2930	234.8605	7.020803	33.66488
1987	5.76939	3.3084161	236.0283	234.5976	7.020744	33.66507
1988	5.76984	3.3084161	235.7784	234.3494	7.020683	33.66474
1989	5.77004	3.3084097	235.5441	234.1166	7.020656	33.66458
1990	5.77040	3.3084159	235.2976	233.8717	7.020605	33.66442
1991	5.77070	3.3084158	235.0602	233.6359	7.020562	33.66424
1992	5.77095	3.3084094	234.8289	233.4061	7.020530	33.66403
1993	5.77110	3.3083842	234.5941	233.1729	7.020519	33.66371
1994	5.77135	3.3083526	234.3660	232.9463	7.020500	33.66322
1995	5.77140	3.3084155	234.1253	232.7072	7.020455	33.66400
1996	5.77146	3.3083839	233.8880	232.4714	7.020460	33.66371
1997	5.77166	3.3083713	233.6474	232.2324	7.020437	33.66348
1998	5.77176	3.3083523	233.4008	231.9875	7.020429	33.66329
1999	5.77186	3.3083774	233.1693	231.7575	7.020398	33.66359
2000	5.77196	3.3083521	232.9350	231.5248	7.020394	33.66332
2001	5.77206	3.3083836	232.7034	231.2947	7.020360	33.66369
2002	5.77216	3.3083520	232.4632	231.0560	7.020358	33.66335
2003	5.77246	3.3083834	232.2285	230.8230	7.020300	33.66353
2004	5.77262	3.3084148	232.0003	230.5963	7.020260	33.66384
2005	5.77277	3.3084084	231.7628	230.3603	7.020239	33.66374
2006	5.77307	3.3083958	231.5223	230.1214	7.020204	33.66341
2007	5.77327	3.3083516	231.2664	229.8672	7.020196	33.66284
2008	5.77357	3.3083515	231.0109	229.6134	7.020154	33.66267
2009	5.77373	3.3084144	230.7673	229.3714	7.020097	33.66335
2010	5.77388	3.3084458	230.5084	229.1142	7.020056	33.66368
2011	5.77418	3.3084143	230.2711	228.8784	7.020030	33.66314
2012	5.77438	3.3083827	230.0392	228.6481	7.020017	33.66270
2013	5.77448	3.3083826	229.7960	228.4065	7.019999	33.66272
2014	5.77458	3.3083825	229.5585	228.1705	7.019982	33.66274
2015	5.77484	3.3083825	229.3242	227.9378	7.019946	33.66260
2016	5.77524	3.3083635	229.0743	227.6896	7.019901	33.66211
2017	5.77544	3.3083823	228.8337	227.4505	7.019861	33.66224
2018	5.77579	3.3084074	228.5844	227.2029	7.019799	33.66230
2019	5.77615	3.3084136	228.3466	226.9667	7.019748	33.66213
2020	5.77660	3.3084451	228.1122	226.7338	7.019671	33.66215
2021	5.77721	3.3084450	227.8685	226.4917	7.019592	33.66167
2022	5.77771	3.3084638	227.6433	226.2680	7.019516	33.66149
2023	5.77837	3.3084826	227.3998	226.0261	7.019420	33.66117
2024	5.77887	3.3085077	227.1562	225.7841	7.019341	33.66108
2025	5.77953	3.3084761	226.9276	225.5570	7.019272	33.66018
2026	5.77998	3.3085391	226.6873	225.3183	7.019179	33.66056
2027	5.78069	3.3085705	226.4560	225.0885	7.019071	33.66032
2028	5.78124	3.3086019	226.2153	224.8493	7.018982	33.66025
2029	5.78180	3.3085703	225.9746	224.6103	7.018926	33.65946
2030	5.78235	3.3085828	225.7494	224.3865	7.018846	33.65916
2031	5.78266	3.3086017	225.4999	224.1387	7.018794	33.65919
2032	5.78331	3.3086331	225.2685	223.9088	7.018693	33.65901
2033	5.78372	3.3086015	225.0281	223.6700	7.018655	33.65837
2034	5.78427	3.3086644	224.7904	223.4339	7.018549	33.65865
2035	5.78473	3.3086769	224.5498	223.1948	7.018482	33.65846
2036	5.78523	3.3086643	224.3154	222.9620	7.018422	33.65793
2037	5.78574	3.3086768	224.0780	222.7262	7.018349	33.65768
2038	5.78624	3.3086956	223.8438	222.4935	7.018272	33.65751
2039	5.78664	3.3086955	223.6120	222.2632	7.018218	33.65722
2040	5.78710	3.3087269	223.3745	222.0273	7.018141	33.65724
2041	5.78760	3.3087584	223.1338	221.7882	7.018058	33.65722
2042	5.78811	3.3087583	222.9118	221.5676	7.017992	33.65682
2043	5.78856	3.3087645	222.6684	221.3258	7.017928	33.65656
2044	5.78902	3.3087896	222.4338	221.0928	7.017854	33.65651
2045	5.78952	3.3087895	222.1994	220.8599	7.017788	33.65613
2046	5.79033	3.3088210	221.9682	220.6302	7.017668	33.65579
2047	5.79063	3.3088524	221.7212	220.3849	7.017609	33.65597
2048	5.79119	3.3088208	221.4900	220.1551	7.017553	33.65517
2049	5.79174	3.3088522	221.2492	219.9160	7.017464	33.65510
2050	5.79215	3.3088521	221.0090	219.6772	7.017409	33.65481
2051	5.79260	3.3088206	220.7469	219.4169	7.017364	33.65413
2052	5.79295	3.3089150	220.4973	219.1689	7.017267	33.65497
2053	5.79331	3.3089149	220.2597	218.9329	7.017219	33.65474
2054	5.79386	3.3089085	220.0161	218.6909	7.017149	33.65424
2055	5.79427	3.3088832	219.7695	218.4459	7.017107	33.65367
2056	5.79452	3.3088831	219.5380	218.2160	7.017071	33.65353
2057	5.79477	3.3088516	219.2973	217.9768	7.017052	33.65305
2058	5.79497	3.3088830	219.0630	217.7440	7.017005	33.65332
2059	5.79548	3.3088829	218.8227	217.5053	7.016939	33.65293
2060	5.79573	3.3088828	218.5880	217.2721	7.016903	33.65280
2061	5.79623	3.3088828	218.3567	217.0424	7.016836	33.65241
2062	5.79654	3.3088827	218.1193	216.8065	7.016794	33.65223
2063	5.79684	3.3089141	217.8727	216.5616	7.016735	33.65240
2064	5.79714	3.3089140	217.6411	216.3315	7.016693	33.65221
2065	5.79734	3.3089769	217.3975	216.0894	7.016631	33.65285
2066	5.79780	3.3089454	217.1571	215.8506	7.016586	33.65216
2067	5.79795	3.3089453	216.9197	215.6148	7.016562	33.65212
2068	5.79810	3.3089767	216.6789	215.3755	7.016522	33.65245
2069	5.79825	3.3089451	216.4445	215.1427	7.016515	33.65206
2070	5.79840	3.3089451	216.2101	214.9098	7.016491	33.65202
2071	5.79856	3.3089450	215.9725	214.6738	7.016467	33.65199
2072	5.79856	3.3089449	215.7351	214.4379	7.016462	33.65211
2073	5.79856	3.3089133	215.5004	214.2048	7.016473	33.65187
2074	5.79881	3.3089133	215.2658	213.9717	7.016437	33.65173
2075	5.79891	3.3088817	215.0133	213.7208	7.016435	33.65140
2076	5.79916	3.3088816	214.7576	213.4667	7.016399	33.65128
2077	5.79952	3.3088815	214.5170	213.2278	7.016351	33.65104
2078	5.79967	3.3089129	214.2795	212.9918	7.016310	33.65137
2079	5.79987	3.3089129	214.0512	212.7650	7.016281	33.65128
2080	5.80012	3.3089128	213.8078	212.5232	7.016245	33.65115
2081	5.80037	3.3088812	213.5548	212.2718	7.016224	33.65067
2082	5.80063	3.3089126	213.3020	212.0207	7.016172	33.65089
2083	5.80103	3.3089440	213.0615	211.7818	7.016101	33.65097
2084	5.80133	3.3089124	212.8209	211.5427	7.016075	33.65043
2085	5.80153	3.3089439	212.5834	211.3068	7.016029	33.65070
2086	5.80199	3.3089753	212.3522	211.0770	7.015952	33.65072
2087	5.80244	3.3090067	212.1146	210.8410	7.015875	33.65074
2088	5.80285	3.3090066	211.8800	210.6080	7.015821	33.65045
2089	5.80320	3.3089688	211.6455	210.3750	7.015792	33.64979
2090	5.80355	3.3090065	211.4051	210.1361	7.015724	33.64999
2091	5.80391	3.3090064	211.1766	209.9092	7.015676	33.64975
2092	5.80436	3.3090063	210.9362	209.6703	7.015616	33.64941
2093	5.80461	3.3090062	210.6955	209.4311	7.015579	33.64928
2094	5.80467	3.3089873	210.4334	209.1708	7.015577	33.64915
2095	5.80472	3.3090061	210.1749	208.9139	7.015555	33.64944
2096	5.80497	3.3090060	209.9373	208.6779	7.015519	33.64930
2097	5.80507	3.3090059	209.7060	208.4481	7.015502	33.64932
2098	5.80507	3.3089932	209.4530	208.1967	7.015503	33.64930
2099	5.80512	3.3089995	209.2033	207.9487	7.015488	33.64945
2100	5.80532	3.3090057	208.9631	207.7100	7.015454	33.64944
2101	5.80547	3.3090056	208.7286	207.4770	7.015431	33.64940
2102	5.80547	3.3090055	208.4911	207.2411	7.015425	33.64952
2103	5.80562	3.3089992	208.2412	206.9928	7.015404	33.64942
2104	5.80573	3.3090054	208.0129	206.7660	7.015384	33.64950
2105	5.80588	3.3090053	207.7722	206.5269	7.015360	33.64947
2106	5.80613	3.3090367	207.5318	206.2880	7.015307	33.64970
2107	5.80633	3.3090052	207.3034	206.0611	7.015294	33.64925
2108	5.80669	3.3089988	207.0567	205.8160	7.015249	33.64895
2109	5.80689	3.3089735	206.8223	205.5831	7.015232	33.64858
2110	5.80714	3.3090049	206.5847	205.3471	7.015180	33.64880
2111	5.80754	3.3090048	206.3534	205.1173	7.015125	33.64852
2112	5.80780	3.3089733	206.1094	204.8749	7.015105	33.64803
2113	5.80800	3.3090047	205.8812	204.6481	7.015059	33.64830
2114	5.80835	3.3089983	205.6435	204.4120	7.015014	33.64799
2115	5.80865	3.3089919	205.3879	204.1580	7.014975	33.64775
2116	5.80891	3.3089918	205.1351	203.9069	7.014939	33.64762
2117	5.80916	3.3090044	204.8825	203.6559	7.014896	33.64764
2118	5.80951	3.3090358	204.6478	203.4227	7.014831	33.64776
2119	5.80997	3.3090609	204.4075	203.1839	7.014758	33.64771
2120	5.81052	3.3090671	204.1667	202.9448	7.014681	33.64734
2121	5.81113	3.3090670	203.9291	202.7087	7.014603	33.64686
2122	5.81163	3.3090985	203.6949	202.4760	7.014520	33.64683
2123	5.81204	3.3090984	203.4633	202.2459	7.014465	33.64654
2124	5.81249	3.3090983	203.2259	202.0101	7.014405	33.64621
2125	5.81290	3.3090856	202.9855	201.7712	7.014357	33.64578
2126	5.81345	3.3090666	202.7512	201.5384	7.014294	33.64513
2127	5.81381	3.3091296	202.5130	201.3018	7.014213	33.64561
2128	5.81431	3.3091295	202.2760	201.0663	7.014146	33.64522
2129	5.81497	3.3091672	202.0443	200.8360	7.014042	33.64511
2130	5.81542	3.3091671	201.8068	200.6001	7.013981	33.64478
2131	5.81583	3.3091481	201.5541	200.3490	7.013936	33.64428
2132	5.81613	3.3091670	201.3072	200.1038	7.013884	33.64432
2133	5.81648	3.3091984	201.0638	199.8619	7.013819	33.64444
2134	5.81673	3.3092046	200.8110	199.6108	7.013780	33.64439
2135	5.81704	3.3092360	200.5613	199.3626	7.013721	33.64457
2136	5.81744	3.3091666	200.3113	199.1142	7.013702	33.64351
2137	5.81764	3.3092296	200.0741	198.8786	7.013640	33.64413
2138	5.81795	3.3092169	199.8242	198.6303	7.013604	33.64381
2139	5.81825	3.3091979	199.5805	198.3882	7.013571	33.64342
2140	5.81865	3.3091978	199.3491	198.1583	7.013517	33.64313
2141	5.81891	3.3091977	199.1146	197.9253	7.013481	33.64300
2142	5.81911	3.3092166	198.8619	197.6742	7.013441	33.64313
2143	5.81946	3.3092102	198.6121	197.4260	7.013396	33.64283
2144	5.81976	3.3091975	198.3687	197.1842	7.013360	33.64251
2145	5.81982	3.3091974	198.1341	196.9511	7.013348	33.64258
2146	5.82017	3.3092351	197.8995	196.7180	7.013281	33.64277
2147	5.82032	3.3091973	197.6561	196.4762	7.013276	33.64231
2148	5.82057	3.3092287	197.4244	196.2460	7.013224	33.64253
2149	5.82078	3.3092286	197.1809	196.0041	7.013194	33.64245
2150	5.82108	3.3092285	196.9434	195.7680	7.013152	33.64227
2151	5.82123	3.3092285	196.7121	195.5382	7.013128	33.64223
2152	5.82148	3.3092347	196.4837	195.3114	7.013089	33.64216
2153	5.82189	3.3092283	196.2431	195.0723	7.013038	33.64181
2154	5.82219	3.3092597	196.0176	194.8483	7.012980	33.64197
2155	5.82264	3.3092596	195.7742	194.6064	7.012919	33.64164
2156	5.82305	3.3092911	195.5335	194.3673	7.012848	33.64171
2157	5.82340	3.3092910	195.2959	194.1312	7.012800	33.64148
2158	5.82360	3.3092657	195.0552	193.8920	7.012783	33.64111
2159	5.82396	3.3092593	194.8240	193.6623	7.012738	33.64081
2160	5.82421	3.3092908	194.5864	193.4262	7.012686	33.64103
2161	5.82441	3.3092907	194.3487	193.1901	7.012656	33.64094
2162	5.82466	3.3092906	194.1113	192.9542	7.012620	33.64081
2163	5.82472	3.3092905	193.8766	192.7210	7.012609	33.64088
2164	5.82502	3.3092652	193.6391	192.4851	7.012579	33.64041
2165	5.82517	3.3092652	193.3957	192.2432	7.012555	33.64038
2166	5.82537	3.3092588	193.1551	192.0042	7.012529	33.64022
2167	5.82557	3.3092902	192.9113	191.7619	7.012482	33.64050
2168	5.82578	3.3092586	192.6739	191.5261	7.012469	33.64006
2169	5.82608	3.3092459	192.4302	191.2839	7.012433	33.63974
2170	5.82633	3.3092648	192.1898	191.0450	7.012387	33.63982
2171	5.82633	3.3092899	191.9551	190.8119	7.012369	33.64022
2172	5.82663	3.3092898	191.7178	190.5761	7.012327	33.64004
2173	5.82699	3.3092897	191.4799	190.3397	7.012278	33.63980
2174	5.82724	3.3092645	191.2271	190.0885	7.012255	33.63939
2175	5.82759	3.3092896	190.9714	189.8345	7.012193	33.63945
2176	5.82785	3.3092895	190.7431	189.6076	7.012157	33.63931
2177	5.82820	3.3092894	190.5026	189.3687	7.012109	33.63908
2178	5.82860	3.3092893	190.2589	189.1266	7.012055	33.63880
2179	5.82896	3.3092829	189.9939	188.8632	7.012009	33.63851
2180	5.82911	3.3093270	189.7228	188.5939	7.011962	33.63899
2181	5.82967	3.3093521	189.4759	188.3486	7.011876	33.63884
2182	5.83007	3.3093331	189.2355	188.1097	7.011831	33.63834
2183	5.83042	3.3093204	188.9920	187.8678	7.011789	33.63797
2184	5.83063	3.3092888	188.7575	187.6347	7.011775	33.63753
2185	5.83078	3.3092951	188.5166	187.3954	7.011748	33.63757
2186	5.83098	3.3092887	188.2882	187.1685	7.011722	33.63741
2187	5.83128	3.3093201	188.0569	186.9387	7.011664	33.63758
2188	5.83138	3.3092885	187.8317	186.7149	7.011663	33.63724
2189	5.83133	3.3092822	187.5851	186.4698	7.011666	33.63734
2190	5.83159	3.3092947	187.3231	186.2095	7.011623	33.63736
2191	5.83169	3.3092631	187.0825	185.9705	7.011622	33.63702
2192	5.83199	3.3092882	186.8295	185.7191	7.011566	33.63713
2193	5.83229	3.3092944	186.5920	185.4831	7.011521	33.63702
2194	5.83260	3.3093511	186.3575	185.2501	7.011449	33.63747
2195	5.83310	3.3093258	186.1292	185.0232	7.011396	33.63680
2196	5.83356	3.3093509	185.8915	184.7870	7.011322	33.63675
2197	5.83386	3.3093508	185.6571	184.5542	7.011280	33.63656
2198	5.83431	3.3093570	185.4166	184.3152	7.011216	33.63630
2199	5.83482	3.3093822	185.1699	184.0701	7.011137	33.63620
2200	5.83517	3.3093821	184.9445	183.8461	7.011089	33.63596
2201	5.83568	3.3093820	184.7129	183.6160	7.011022	33.63557
2202	5.83598	3.3093882	184.4663	183.3710	7.010976	33.63547
2203	5.83644	3.3094133	184.2164	183.1227	7.010903	33.63542
2204	5.83664	3.3094133	183.9759	182.8837	7.010873	33.63534
2205	5.83679	3.3094132	183.7568	182.6660	7.010849	33.63530
2206	5.83709	3.3094131	183.5036	182.4144	7.010807	33.63512
2207	5.83740	3.3093815	183.2572	182.1696	7.010781	33.63459
2208	5.83760	3.3093815	183.0198	181.9337	7.010751	33.63450
2209	5.83770	3.3093814	182.7912	181.7065	7.010733	33.63452
2210	5.83795	3.3093813	182.5566	181.4735	7.010697	33.63438
2211	5.83800	3.3093812	182.3254	181.2437	7.010686	33.63444
2212	5.83831	3.3093559	182.0783	180.9983	7.010657	33.63398
2213	5.83856	3.3093496	181.8350	180.7564	7.010624	33.63378
2214	5.83896	3.3093810	181.5911	180.5142	7.010553	33.63385
2215	5.83952	3.3093809	181.3567	180.2812	7.010480	33.63342
2216	5.83997	3.3093493	181.1161	180.0422	7.010436	33.63273
2217	5.84033	3.3093555	180.8786	179.8062	7.010384	33.63257
2218	5.84078	3.3093492	180.6288	179.5580	7.010327	33.63217
2219	5.84134	3.3093491	180.3884	179.3190	7.010254	33.63173
2220	5.84174	3.3093490	180.1568	179.0890	7.010200	33.63144
2221	5.84205	3.3093174	179.9132	178.8469	7.010174	33.63091
2222	5.84240	3.3093488	179.6787	178.6139	7.010109	33.63103
2223	5.84275	3.3093173	179.4229	178.3597	7.010077	33.63045
2224	5.84295	3.3093487	179.1668	178.1052	7.010030	33.63073
2225	5.84326	3.3094116	178.9234	177.8634	7.009955	33.63126
2226	5.84346	3.3094115	178.6824	177.6239	7.009925	33.63118
2227	5.84381	3.3093799	178.4635	177.4064	7.009894	33.63058
2228	5.84412	3.3093799	178.2382	177.1825	7.009852	33.63039
2229	5.84432	3.3094113	178.0066	176.9524	7.009806	33.63066
2230	5.84467	3.3093482	177.7537	176.7011	7.009790	33.62972
2231	5.84488	3.3092851	177.4858	176.4349	7.009792	33.62894
2232	5.84518	3.3093480	177.2057	176.1565	7.009716	33.62949
2233	5.84563	3.3094424	176.9405	175.8931	7.009606	33.63023
2234	5.84669	3.3094739	176.7092	175.6632	7.009456	33.62965
2235	5.84771	3.3094423	176.4896	175.4451	7.009345	33.62840
2236	5.84877	3.3094422	176.2464	175.2033	7.009211	33.62746
2237	5.84973	3.3094736	176.0025	174.9611	7.009072	33.62698
2238	5.85038	3.3094735	175.7588	174.7189	7.008987	33.62645
2239	5.85114	3.3095049	175.5119	174.4735	7.008874	33.62617
2240	5.85165	3.3095301	175.2807	174.2438	7.008794	33.62607
2241	5.85246	3.3095363	175.0401	174.0047	7.008687	33.62546
2242	5.85296	3.3095047	174.8086	173.7746	7.008637	33.62471
2243	5.85347	3.3095676	174.5678	173.5354	7.008538	33.62504
2244	5.85407	3.3095801	174.3152	173.2845	7.008452	33.62470
2245	5.85503	3.3096494	174.0472	173.0181	7.008294	33.62466
2246	5.85630	3.3097123	173.8127	172.7851	7.008103	33.62423
2247	5.85782	3.3097248	173.5752	172.5491	7.007907	33.62298
2248	5.85923	3.3097562	173.3404	172.3158	7.007714	33.62205
2249	5.86080	3.3097876	173.1090	172.0858	7.007503	33.62096
2250	5.86216	3.3098505	172.8713	171.8497	7.007299	33.62043
2251	5.86338	3.3098504	172.6372	171.6170	7.007147	33.61934
2252	5.86464	3.3098630	172.3961	171.3775	7.006982	33.61835
2253	5.86575	3.3099259	172.1438	171.1267	7.006809	33.61808
2254	5.86676	3.3099132	171.8966	170.8811	7.006687	33.61705
2255	5.86757	3.3099446	171.6622	170.6482	7.006568	33.61672
2256	5.86828	3.3099760	171.4247	170.4122	7.006460	33.61649
2257	5.86899	3.3099759	171.1933	170.1822	7.006369	33.61590
2258	5.86965	3.3099759	170.9555	169.9460	7.006284	33.61536
2259	5.87041	3.3100388	170.7212	169.7131	7.006155	33.61544
2260	5.87111	3.3100387	170.4806	169.4741	7.006063	33.61485
2261	5.87172	3.3100386	170.2520	169.2469	7.005985	33.61436
2262	5.87268	3.3101016	170.0175	169.0139	7.005831	33.61423
2263	5.87369	3.3101393	169.7771	168.7750	7.005683	33.61377
2264	5.87455	3.3101392	169.5394	168.5388	7.005574	33.61304
2265	5.87536	3.3101391	169.3048	168.3057	7.005470	33.61235
2266	5.87642	3.3101012	169.0673	168.0696	7.005356	33.61098
2267	5.87754	3.3100696	168.8054	167.8094	7.005231	33.60965
2268	5.87840	3.3101010	168.5340	167.5398	7.005105	33.60929
2269	5.87941	3.3101009	168.3028	167.3100	7.004977	33.60840
2270	5.88017	3.3100694	168.0652	167.0739	7.004896	33.60741
2271	5.88087	3.3100378	167.8156	166.8258	7.004821	33.60647
2272	5.88133	3.3100377	167.5627	166.5746	7.004760	33.60615
2273	5.88168	3.3100061	167.3221	166.3355	7.004728	33.60556
2274	5.88219	3.3100375	167.0815	166.0963	7.004645	33.60553
2275	5.88229	3.3100059	166.8530	165.8693	7.004644	33.60519
2276	5.88264	3.3100059	166.6185	165.6363	7.004596	33.60495
2277	5.88295	3.3100121	166.3780	165.3973	7.004550	33.60484
2278	5.88315	3.3100057	166.1434	165.1642	7.004524	33.60468
2279	5.88325	3.3099741	165.9056	164.9279	7.004523	33.60435
2280	5.88340	3.3099740	165.6772	164.7010	7.004499	33.60431
2281	5.88361	3.3099740	165.4395	164.4647	7.004469	33.60423
2282	5.88376	3.3099865	165.1931	164.2199	7.004439	33.60434
2283	5.88401	3.3099738	164.9431	163.9715	7.004409	33.60407
2284	5.88406	3.3099422	164.7057	163.7355	7.004414	33.60378
2285	5.88406	3.3099737	164.4679	163.4993	7.004392	33.60425
2286	5.88406	3.3099547	164.2213	163.2542	7.004396	33.60416
2287	5.88426	3.3099105	163.9534	162.9880	7.004388	33.60360
2288	5.88442	3.3099041	163.6852	162.7214	7.004367	33.60351
2289	5.88462	3.3099103	163.4326	162.4705	7.004334	33.60350
2290	5.88482	3.3099102	163.1920	162.2313	7.004304	33.60342
2291	5.88497	3.3099102	162.9480	161.9889	7.004280	33.60339
2292	5.88548	3.3098786	162.7197	161.7621	7.004230	33.60265
2293	5.88568	3.3098533	162.4669	161.5108	7.004212	33.60229
2294	5.88608	3.3098469	162.2170	161.2624	7.004161	33.60194
2295	5.88659	3.3098594	161.9703	161.0173	7.004088	33.60170
2296	5.88694	3.3098782	161.7419	160.7904	7.004030	33.60168
2297	5.88740	3.3099097	161.5072	160.5571	7.003953	33.60169
2298	5.88780	3.3099096	161.2699	160.3213	7.003899	33.60141
2299	5.88851	3.3099095	161.0291	160.0820	7.003808	33.60083
2300	5.88882	3.3099346	160.7734	159.8279	7.003752	33.60093
2301	5.88922	3.3099408	160.5204	159.5765	7.003694	33.60073
2302	5.88973	3.3099093	160.2890	159.3465	7.003644	33.59999
2303	5.89018	3.3099092	160.0483	159.1074	7.003583	33.59965
2304	5.89084	3.3099091	159.8110	158.8715	7.003498	33.59912
2305	5.89145	3.3099090	159.5764	158.6384	7.003419	33.59863
2306	5.89200	3.3098900	159.3506	158.4141	7.003357	33.59798
2307	5.89281	3.3098458	159.1163	158.1813	7.003276	33.59679
2308	5.89383	3.3098647	158.8574	157.9239	7.003138	33.59613
2309	5.89494	3.3098142	158.6014	157.6695	7.003024	33.59458
2310	5.89610	3.3098582	158.3487	157.4184	7.002854	33.59405
2311	5.89722	3.3098140	158.1201	157.1912	7.002737	33.59256
2312	5.89853	3.3097950	157.8859	156.9585	7.002582	33.59116
2313	5.90000	3.3098138	157.6422	156.7163	7.002390	33.59003
2314	5.90177	3.3098452	157.4135	156.4891	7.002154	33.58874
2315	5.90369	3.3098451	157.1759	156.2529	7.001916	33.58695
2316	5.90587	3.3098450	156.9355	156.0140	7.001647	33.58491
2317	5.90840	3.3098449	156.6976	155.7777	7.001335	33.58252
2318	5.91078	3.3098574	156.4599	155.5414	7.001036	33.58042
2319	5.91361	3.3098447	156.2074	155.2905	7.000694	33.57759
2320	5.91599	3.3098131	155.9576	155.0423	7.000416	33.57500
2321	5.91812	3.3098445	155.7169	154.8031	7.000138	33.57336
2322	5.92035	3.3098129	155.4822	154.5699	6.999879	33.57091
2323	5.92242	3.3097813	155.2508	154.3399	6.999639	33.56861
2324	5.92419	3.3097245	154.9920	154.0827	6.999448	33.56635
2325	5.92587	3.3096740	154.7393	153.8315	6.999266	33.56425
2326	5.92744	3.3096235	154.5046	153.5983	6.999097	33.56224
2327	5.92875	3.3096234	154.2670	153.3622	6.998932	33.56105
2328	5.93002	3.3095918	154.0294	153.1261	6.998790	33.55956
2329	5.93098	3.3095602	153.7917	152.8899	6.998685	33.55837
2330	5.93169	3.3095601	153.5571	152.6568	6.998594	33.55778
2331	5.93250	3.3095537	153.3198	152.4209	6.998494	33.55703
2332	5.93331	3.3095285	153.0882	152.1907	6.998403	33.55605
2333	5.93422	3.3094969	152.8476	151.9516	6.998304	33.55491
2334	5.93473	3.3094968	152.6191	151.7245	6.998238	33.55453
2335	5.93549	3.3094967	152.3724	151.4794	6.998140	33.55389
2336	5.93610	3.3094651	152.1377	151.2462	6.998077	33.55305
2337	5.93701	3.3094335	151.9002	151.0101	6.997978	33.55191
2338	5.93777	3.3094335	151.6655	150.7769	6.997881	33.55128
2339	5.93837	3.3093704	151.4281	150.5410	6.997835	33.55008
2340	5.93903	3.3094018	151.1904	150.3047	6.997733	33.54990
2341	5.93974	3.3093765	150.9436	150.0595	6.997655	33.54904
2342	5.94055	3.3092756	150.6879	149.8054	6.997603	33.54723
2343	5.94121	3.3092440	150.4656	149.5844	6.997535	33.54633
2344	5.94187	3.3092313	150.2093	149.3298	6.997456	33.54566
2345	5.94263	3.3091871	149.9447	149.0668	6.997381	33.54454
2346	5.94334	3.3091114	149.6886	148.8124	6.997328	33.54312
2347	5.94395	3.3090799	149.4570	148.5821	6.997266	33.54228
2348	5.94471	3.3090168	149.2226	148.3492	6.997201	33.54093
2349	5.94521	3.3089537	148.9821	148.1102	6.997167	33.53984
2350	5.94612	3.3088843	148.7232	147.8529	6.997086	33.53828
2351	5.94683	3.3088590	148.4703	147.6015	6.997008	33.53742
2352	5.94759	3.3087959	148.2296	147.3623	6.996943	33.53608
2353	5.94800	3.3087013	148.0013	147.1354	6.996937	33.53473
2354	5.94871	3.3086698	147.7696	146.9052	6.996862	33.53379
2355	5.94927	3.3086382	147.5289	146.6660	6.996806	33.53300
2356	5.94967	3.3086066	147.2885	146.4271	6.996768	33.53236
2357	5.95023	3.3085750	147.0354	146.1756	6.996711	33.53158
2358	5.95068	3.3085119	146.7918	145.9335	6.996683	33.53054
2359	5.95114	3.3084489	146.5572	145.7003	6.996655	33.52950
2360	5.95175	3.3084488	146.3256	145.4702	6.996576	33.52901
2361	5.95200	3.3083794	146.0850	145.2311	6.996575	33.52810
2362	5.95236	3.3083226	145.8536	145.0011	6.996556	33.52723
2363	5.95281	3.3083225	145.6159	144.7649	6.996496	33.52689
2364	5.95327	3.3082595	145.3784	144.5288	6.996468	33.52585
2365	5.95383	3.3082279	145.1315	144.2835	6.996411	33.52506
2366	5.95413	3.3081963	144.8847	144.0382	6.996385	33.52453
2367	5.95484	3.3081332	144.6350	143.7900	6.996326	33.52324
2368	5.95555	3.3080638	144.4004	143.5569	6.996271	33.52188
2369	5.95606	3.3079819	144.1599	143.3179	6.996246	33.52058
2370	5.95661	3.3079062	143.9224	143.0819	6.996212	33.51929
2371	5.95722	3.3078746	143.6875	142.8484	6.996150	33.51845
2372	5.95773	3.3078115	143.4349	142.5974	6.996115	33.51737
2373	5.95864	3.3077421	143.1789	142.3430	6.996035	33.51581
2374	5.95975	3.3075909	142.9414	142.1069	6.995972	33.51313
2375	5.96127	3.3074144	142.6975	141.8646	6.995874	33.50976
2376	5.96280	3.3072316	142.4599	141.6284	6.995778	33.50632
2377	5.96467	3.3070174	142.2103	141.3804	6.995656	33.50218
2378	5.96670	3.3068283	141.9757	141.1472	6.995503	33.49817
2379	5.96873	3.3066267	141.7290	140.9020	6.995356	33.49402
2380	5.97080	3.3064754	141.4883	140.6628	6.995177	33.49038
2381	5.97283	3.3062989	141.2413	140.4174	6.995017	33.48652
2382	5.97521	3.3060280	140.9977	140.1752	6.994863	33.48124
2383	5.97831	3.3057193	140.7541	139.9332	6.994642	33.47484
2384	5.98186	3.3053350	140.5133	139.6939	6.994405	33.46713
2385	5.98551	3.3048815	140.2727	139.4547	6.994191	33.45855
2386	5.98982	3.3044910	140.0231	139.2066	6.993865	33.45004
2387	5.99387	3.3042012	139.7884	138.9734	6.993518	33.44289
2388	5.99747	3.3038611	139.5507	138.7372	6.993252	33.43564
2389	6.00087	3.3034706	139.3071	138.4951	6.993036	33.42802
2390	6.00432	3.3030801	139.0632	138.2527	6.992814	33.42036
2391	6.00792	3.3026833	138.8074	137.9984	6.992576	33.41248
2392	6.01092	3.3025573	138.5456	137.7382	6.992273	33.40825
2393	6.01315	3.3021165	138.2927	137.4869	6.992223	33.40123
2394	6.01564	3.3017261	138.0488	137.2446	6.992118	33.39452
2395	6.01838	3.3015183	137.8144	137.0116	6.991887	33.38960
2396	6.02031	3.3016063	137.5676	136.7663	6.991604	33.38881
2397	6.02213	3.3013859	137.3119	136.5121	6.991490	33.38467
2398	6.02411	3.3010711	137.0649	136.2667	6.991406	33.37931
2399	6.02569	3.3009388	136.8243	136.0275	6.991279	33.37640
2400	6.02711	3.3009135	136.5926	135.7973	6.991115	33.37483
2401	6.02838	3.3008253	136.3611	135.5672	6.991001	33.37270
2402	6.02934	3.3007497	136.1206	135.3281	6.990918	33.37103
2403	6.03005	3.3007182	135.8829	135.0919	6.990843	33.37009
2404	6.03081	3.3006237	135.6456	134.8561	6.990794	33.36840
2405	6.03117	3.3006173	135.4077	134.6196	6.990749	33.36810
2406	6.03173	3.3005920	135.1637	134.3772	6.990689	33.36738
2407	6.03233	3.3005542	134.9232	134.1382	6.990629	33.36648
2408	6.03264	3.3004912	134.6734	133.8899	6.990619	33.36560
2409	6.03294	3.3004659	134.4269	133.6449	6.990589	33.36513
2410	6.03325	3.3004029	134.1769	133.3965	6.990579	33.36425
2411	6.03371	3.3003713	133.9393	133.1603	6.990535	33.36357
2412	6.03457	3.3002517	133.6956	132.9181	6.990486	33.36150
2413	6.03563	3.3001824	133.4578	132.6817	6.990387	33.35979
2414	6.03665	3.3000123	133.2144	132.4398	6.990346	33.35700
2415	6.03797	3.2998612	132.9705	132.1975	6.990259	33.35413
2416	6.03934	3.2996849	132.7357	131.9641	6.990178	33.35092
2417	6.04076	3.2994708	132.4861	131.7160	6.990110	33.34725
2418	6.04249	3.2992631	132.2547	131.4860	6.990002	33.34333
2419	6.04386	3.2991749	132.0077	131.2405	6.989876	33.34112
2420	6.04523	3.2990426	131.7673	131.0016	6.989773	33.33841
2421	6.04635	3.2988726	131.5235	130.7592	6.989719	33.33552
2422	6.04752	3.2987844	131.2766	130.5140	6.989618	33.33351
2423	6.04843	3.2987529	131.0330	130.2718	6.989518	33.33238
2424	6.04945	3.2986899	130.7952	130.0355	6.989422	33.33079
2425	6.05016	3.2986017	130.5580	129.7997	6.989376	33.32922
2426	6.05071	3.2985135	130.3050	129.5482	6.989348	33.32781
2427	6.05143	3.2984190	130.0643	129.3090	6.989305	33.32617
2428	6.05188	3.2983497	129.8206	129.0668	6.989279	33.32507
2429	6.05214	3.2982678	129.5767	128.8245	6.989285	33.32402
2430	6.05270	3.2982111	129.3360	128.5852	6.989241	33.32295
2431	6.05331	3.2981607	129.0952	128.3459	6.989188	33.32191
2432	6.05371	3.2980348	128.8456	128.0977	6.989198	33.32022
2433	6.05412	3.2980032	128.5805	127.8343	6.989159	33.31960
2434	6.05432	3.2980346	128.3337	127.5890	6.989112	33.31987
2435	6.05452	3.2979087	128.0961	127.3529	6.989147	33.31838
2436	6.05498	3.2977891	127.8495	127.1078	6.989147	33.31671
2437	6.05534	3.2977764	127.5873	126.8471	6.989105	33.31635
2438	6.05584	3.2977574	127.3495	126.6108	6.989048	33.31576
2439	6.05625	3.2976126	127.1030	126.3658	6.989067	33.31386
2440	6.05686	3.2975182	126.8686	126.1328	6.989037	33.31232
2441	6.05722	3.2974300	126.6216	125.8874	6.989033	33.31110
2442	6.05793	3.2973670	126.3746	125.6419	6.988974	33.30982
2443	6.05838	3.2973166	126.1250	125.3938	6.988939	33.30893
2444	6.05899	3.2972473	125.8630	125.1334	6.988895	33.30768
2445	6.05930	3.2971780	125.6255	124.8973	6.988888	33.30672
2446	6.05965	3.2971276	125.3848	124.6581	6.988865	33.30593
2447	6.05996	3.2970709	125.1440	124.4188	6.988852	33.30511
2448	6.06042	3.2970708	124.8943	124.1706	6.988791	33.30479
2449	6.06067	3.2970204	124.6505	123.9283	6.988781	33.30409
2450	6.06118	3.2969134	124.3977	123.6770	6.988769	33.30252
2451	6.06153	3.2968881	124.1479	123.4287	6.988733	33.30201
2452	6.06199	3.2968314	123.9009	123.1833	6.988701	33.30105
2453	6.06260	3.2967118	123.6482	122.9321	6.988683	33.29923
2454	6.06285	3.2966677	123.4107	122.6960	6.988669	33.29861
2455	6.06367	3.2965921	123.1789	122.4656	6.988605	33.29708
2456	6.06412	3.2965165	122.9384	122.2266	6.988582	33.29590
2457	6.06494	3.2964535	122.7006	121.9903	6.988511	33.29452
2458	6.06550	3.2962899	122.4660	121.7571	6.988522	33.29225
2459	6.06626	3.2961703	122.2225	121.5151	6.988486	33.29028
2460	6.06712	3.2961387	121.9787	121.2728	6.988392	33.28920
2461	6.06799	3.2960191	121.7350	121.0305	6.988343	33.28713
2462	6.06915	3.2957800	121.4882	120.7852	6.988319	33.28343
2463	6.07037	3.2956289	121.2414	120.5399	6.988243	33.28066
2464	6.07175	3.2954716	121.0035	120.3035	6.988152	33.27767
2465	6.07286	3.2953016	120.7630	120.0644	6.988098	33.27479
2466	6.07383	3.2951506	120.5162	119.8192	6.988053	33.27228
2467	6.07490	3.2950310	120.2665	119.5709	6.987980	33.27001
2468	6.07576	3.2949051	120.0288	119.3347	6.987934	33.26787
2469	6.07662	3.2948107	119.7850	119.0924	6.987873	33.26609
2470	6.07805	3.2946848	119.5473	118.8561	6.987760	33.26340
2471	6.07942	3.2944897	119.3099	118.6202	6.987688	33.25999
2472	6.08084	3.2943387	119.0661	118.3779	6.987588	33.25702
2473	6.08232	3.2941310	118.8132	118.1265	6.987510	33.25338
2474	6.08374	3.2940177	118.5511	117.8659	6.987390	33.25084
2475	6.08531	3.2937724	118.3102	117.6266	6.987320	33.24667
2476	6.08674	3.2934830	118.0668	117.3846	6.987290	33.24216
2477	6.08841	3.2933194	117.8288	117.1481	6.987165	33.23880
2478	6.08953	3.2931998	117.5886	116.9093	6.987086	33.23649
2479	6.09085	3.2929482	117.3476	116.6698	6.987049	33.23249
2480	6.09202	3.2927783	117.1100	116.4336	6.986989	33.22956
2481	6.09299	3.2926336	116.8755	116.2006	6.986941	33.22711
2482	6.09406	3.2924826	116.6407	115.9672	6.986884	33.22449
2483	6.09507	3.2923945	116.3943	115.7222	6.986800	33.22263
2484	6.09609	3.2923000	116.1474	115.4768	6.986720	33.22070
2485	6.09696	3.2921805	115.9036	115.2345	6.986671	33.21864
2486	6.09767	3.2920609	115.6630	114.9953	6.986641	33.21672
2487	6.09838	3.2920043	115.4221	114.7559	6.986578	33.21551
2488	6.09929	3.2919413	115.1847	114.5199	6.986494	33.21403
2489	6.09985	3.2918217	114.9350	114.2718	6.986482	33.21227
2490	6.10082	3.2917462	114.6848	114.0231	6.986398	33.21060
2491	6.10153	3.2916895	114.4415	113.7813	6.986336	33.20939
2492	6.10189	3.2915826	114.1974	113.5386	6.986342	33.20796
2493	6.10255	3.2914316	113.9536	113.2963	6.986333	33.20575
2494	6.10326	3.2912743	113.7191	113.0632	6.986322	33.20341
2495	6.10387	3.2913120	113.4785	112.8241	6.986224	33.20335
2496	6.10453	3.2912239	113.2316	112.5787	6.986184	33.20184
2497	6.10499	3.2911169	112.9908	112.3393	6.986177	33.20031
2498	6.10575	3.2909911	112.7624	112.1123	6.986144	33.19827
2499	6.10657	3.2908338	112.5186	111.8700	6.986121	33.19584
2500	6.10743	3.2907080	112.2779	111.6307	6.986075	33.19370
2501	6.10850	3.2906136	112.0492	111.4034	6.985989	33.19171
2502	6.10926	3.2905066	111.8119	111.1676	6.985946	33.18989
2503	6.10992	3.2903934	111.5833	110.9403	6.985919	33.18809
2504	6.11068	3.2902990	111.3486	110.7070	6.985869	33.18640
2505	6.11150	3.2902675	111.1173	110.4771	6.985782	33.18537
2506	6.11246	3.2901166	110.8794	110.2406	6.985737	33.18285
2507	6.11338	3.2899845	110.6417	110.0044	6.985688	33.18060
2508	6.11470	3.2898586	110.4073	109.7714	6.985587	33.17801
2509	6.11597	3.2896951	110.1573	109.5229	6.985511	33.17506
2510	6.11755	3.2895190	109.9138	109.2809	6.985405	33.17167
2511	6.11933	3.2893241	109.6609	109.0295	6.985283	33.16788
2512	6.12126	3.2890977	109.4170	108.7871	6.985160	33.16358
2513	6.12310	3.2887959	109.1731	108.5447	6.985087	33.15853
2514	6.12518	3.2884375	108.9234	108.2964	6.985011	33.15261
2515	6.12788	3.2882174	108.6764	108.0510	6.984792	33.14764
2516	6.13057	3.2878716	108.4270	107.8031	6.984637	33.14127
2517	6.13327	3.2874316	108.1954	107.5728	6.984530	33.13383
2518	6.13582	3.2871550	107.9606	107.3395	6.984358	33.12837
2519	6.13831	3.2869727	107.7139	107.0942	6.984144	33.12402
2520	6.14055	3.2865830	107.4730	106.8547	6.984066	33.11760
2521	6.14279	3.2862687	107.2476	106.6307	6.983950	33.11202
2522	6.14477	3.2860487	107.0129	106.3975	6.983817	33.10774
2523	6.14661	3.2858915	106.7753	106.1613	6.983670	33.10431
2524	6.14808	3.2857657	106.5499	105.9373	6.983551	33.10158
2525	6.14956	3.2856086	106.2941	105.6829	6.983446	33.09851
2526	6.15098	3.2853320	106.0319	105.4223	6.983409	33.09416
2527	6.15226	3.2852000	105.7974	105.1892	6.983317	33.09156
2528	6.15343	3.2850931	105.5597	104.9529	6.983224	33.08934
2529	6.15465	3.2850113	105.3191	104.7138	6.983113	33.08736
2530	6.15587	3.2848793	105.0753	104.4714	6.983027	33.08481
2531	6.15745	3.2848227	104.8162	104.2140	6.982859	33.08277
2532	6.15893	3.2847912	104.5634	103.9626	6.982691	33.08110
2533	6.16045	3.2846654	104.3411	103.7416	6.982565	33.07832
2534	6.16254	3.2846716	104.0941	103.4962	6.982304	33.07648
2535	6.16585	3.2846024	103.8625	103.2660	6.981934	33.07260
2536	6.16972	3.2845081	103.6188	103.0237	6.981508	33.06790
2537	6.17374	3.2844388	103.3690	102.7754	6.981051	33.06333
2538	6.17767	3.2844450	103.1191	102.5270	6.980568	33.05970
2539	6.18144	3.2844637	102.8785	102.2879	6.980097	33.05636
2540	6.18561	3.2844448	102.6379	102.0487	6.979596	33.05221
2541	6.18984	3.2844321	102.4031	101.8152	6.979086	33.04807
2542	6.19387	3.2843817	102.1623	101.5760	6.978620	33.04371
2543	6.19774	3.2843753	101.9279	101.3429	6.978150	33.03999
2544	6.20100	3.2843186	101.6931	101.1095	6.977779	33.03630
2545	6.20437	3.2842557	101.4555	100.8734	6.977399	33.03245
2546	6.20814	3.2841928	101.2087	100.6280	6.976970	33.02820
2547	6.21237	3.2841298	100.9743	100.3950	6.976485	33.02350
2548	6.21691	3.2839915	100.7367	100.1588	6.976002	33.01767
2549	6.22063	3.2839223	100.4987	99.9223	6.975582	33.01340
2550	6.22491	3.2839096	100.2612	99.6862	6.975065	33.00922
2551	6.22940	3.2838467	100.0236	99.4500	6.974550	33.00428
2552	6.23415	3.2837523	99.7828	99.2106	6.974019	32.99874
2553	6.23879	3.2836517	99.5513	98.9806	6.973504	32.99323
2554	6.24297	3.2835636	99.3226	98.7532	6.973039	32.98830
2555	6.24700	3.2835949	99.0789	98.5110	6.972530	32.98486
2556	6.25037	3.2834755	98.8291	98.2627	6.972179	32.98039
2557	6.25379	3.2835319	98.5822	98.0172	6.971732	32.97782
2558	6.25685	3.2832805	98.3383	97.7748	6.971484	32.97218
2559	6.25955	3.2831234	98.1039	97.5417	6.971232	32.96792
2560	6.26206	3.2833243	97.8663	97.3056	6.970823	32.96785
2561	6.26476	3.2831546	97.6317	97.0724	6.970577	32.96345
2562	6.26772	3.2829974	97.4031	96.8451	6.970294	32.95895
2563	6.27084	3.2829031	97.1623	96.6058	6.969960	32.95500
2564	6.27395	3.2828402	96.9308	96.3757	6.969611	32.95140
2565	6.27681	3.2827459	96.6930	96.1393	6.969308	32.94770
2566	6.27936	3.2826202	96.4586	95.9062	6.969059	32.94394
2567	6.28171	3.2824882	96.2238	95.6729	6.968837	32.94031
2568	6.28386	3.2824001	95.9861	95.4366	6.968617	32.93737
2569	6.28585	3.2823372	95.7331	95.1851	6.968403	32.93487
2570	6.28779	3.2822178	95.5019	94.9552	6.968224	32.93177
2571	6.28937	3.2822742	95.2609	94.7158	6.967999	32.93099
2572	6.29085	3.2822428	95.0202	94.4764	6.967831	32.92932
2573	6.29218	3.2821296	94.7888	94.2464	6.967722	32.92689
2574	6.29320	3.2821170	94.5448	94.0039	6.967600	32.92588
2575	6.29438	3.2821483	94.3010	93.7615	6.967437	32.92521
2576	6.29545	3.2820728	94.0603	93.5222	6.967340	32.92345
2577	6.29647	3.2819597	93.8228	93.2862	6.967269	32.92132
2578	6.29724	3.2818968	93.5819	93.0467	6.967203	32.92000
2579	6.29806	3.2818339	93.3413	92.8075	6.967131	32.91863
2580	6.29882	3.2817396	93.0976	92.5652	6.967081	32.91696
2581	6.29933	3.2816202	92.8628	92.3319	6.967074	32.91525
2582	6.29984	3.2815197	92.6253	92.0958	6.967058	32.91375
2583	6.30046	3.2814003	92.3694	91.8414	6.967039	32.91196
2584	6.30087	3.2812683	92.1165	91.5900	6.967051	32.91022
2585	6.30138	3.2812368	91.8757	91.3507	6.967000	32.90949
2586	6.30173	3.2811739	91.6410	91.1173	6.966983	32.90856
2587	6.30204	3.2810860	91.4032	90.8809	6.966985	32.90740
2588	6.30219	3.2809540	91.1626	90.6418	6.967028	32.90590
2589	6.30224	3.2809037	90.9221	90.4027	6.967042	32.90541
2590	6.30250	3.2808283	90.6781	90.1601	6.967044	32.90444
2591	6.30270	3.2807340	90.4375	89.9210	6.967062	32.90331
2592	6.30301	3.2806083	90.2057	89.6906	6.967083	32.90173
2593	6.30347	3.2805454	89.9530	89.4393	6.967054	32.90071
2594	6.30373	3.2805768	89.7243	89.2120	6.967002	32.90093
2595	6.30393	3.2804888	89.4835	88.9726	6.967017	32.89987
2596	6.30434	3.2805452	89.2461	88.7366	6.966933	32.90021
2597	6.30444	3.2803881	88.9962	88.4882	6.966995	32.89849
2598	6.30470	3.2803567	88.7370	88.2305	6.966974	32.89802
2599	6.30480	3.2803566	88.4964	87.9914	6.966957	32.89804
2600	6.30521	3.2801305	88.2588	87.7552	6.967016	32.89524
2601	6.30562	3.2801681	88.0057	87.5036	6.966942	32.89539
2602	6.30608	3.2800424	87.7773	87.2765	6.966945	32.89366
2603	6.30679	3.2799230	87.5304	87.0311	6.966914	32.89176
2604	6.30761	3.2797911	87.2896	86.7917	6.966877	32.88962
2605	6.30812	3.2796529	87.0428	86.5464	6.966879	32.88771
2606	6.30853	3.2794142	86.7961	86.3011	6.966945	32.88478
2607	6.30884	3.2791944	86.5586	86.0650	6.967014	32.88216
2608	6.30924	3.2789934	86.3208	85.8286	6.967061	32.87964
2609	6.30981	3.2786920	86.0831	85.5923	6.967140	32.87587
2610	6.31032	3.2784408	85.8482	85.3588	6.967200	32.87269
2611	6.31108	3.2782210	85.6107	85.1227	6.967214	32.86963
2612	6.31200	3.2779509	85.3668	84.8803	6.967234	32.86586
2613	6.31282	3.2777186	85.1261	84.6410	6.967247	32.86260
2614	6.31384	3.2774674	84.8853	84.4016	6.967245	32.85894
2615	6.31487	3.2772163	84.6478	84.1655	6.967243	32.85528
2616	6.31609	3.2770279	84.4070	83.9262	6.967185	32.85212
2617	6.31701	3.2769023	84.1633	83.6839	6.967132	32.84995
2618	6.31809	3.2766197	83.9256	83.4476	6.967140	32.84589
2619	6.31931	3.2762744	83.6848	83.2082	6.967161	32.84099
2620	6.32049	3.2758978	83.4441	82.9689	6.967204	32.83578
2621	6.32161	3.2754270	83.1974	82.7237	6.967300	32.82959
2622	6.32263	3.2749563	82.9564	82.4841	6.967409	32.82349
2623	6.32335	3.2743977	82.7249	82.2539	6.967600	32.81671
2624	6.32391	3.2738643	82.4781	82.0086	6.967796	32.81036
2625	6.32447	3.2731113	82.2344	81.7663	6.968103	32.80157
2626	6.32478	3.2723898	81.9968	81.5301	6.968425	32.79337
2627	6.32504	3.2718816	81.7497	81.2845	6.968645	32.78760
2628	6.32499	3.2715428	81.5182	81.0544	6.968818	32.78400
2629	6.32504	3.2712667	81.2744	80.8120	6.968945	32.78100
2630	6.32514	3.2710220	81.0246	80.5637	6.969051	32.77830
2631	6.32545	3.2707648	80.7807	80.3212	6.969139	32.77527
2632	6.32575	3.2705452	80.5339	80.0758	6.969207	32.77265
2633	6.32621	3.2702754	80.2931	79.8365	6.969282	32.76933
2634	6.32667	3.2700119	80.0464	79.5912	6.969354	32.76608
2635	6.32729	3.2698550	79.7996	79.3459	6.969354	32.76387
2636	6.32780	3.2697295	79.5588	79.1065	6.969350	32.76210
2637	6.32851	3.2695037	79.3211	78.8702	6.969372	32.75902
2638	6.32948	3.2693844	79.0651	78.6157	6.969310	32.75688
2639	6.33092	3.2692903	78.7909	78.3431	6.969178	32.75459
2640	6.33230	3.2689202	78.5441	78.0977	6.969192	32.74927
2641	6.33521	3.2683557	78.3033	77.8584	6.969120	32.74032
2642	6.33884	3.2681989	78.0689	77.6254	6.968755	32.73520
2643	6.34186	3.2677912	77.8309	77.3888	6.968590	32.72789
2644	6.34539	3.2671955	77.5870	77.1463	6.968459	32.71801
2645	6.34933	3.2667377	77.3527	76.9134	6.968208	32.70926
2646	6.35378	3.2663238	77.1119	76.6739	6.967874	32.70051
2647	6.35766	3.2657909	76.8619	76.4254	6.967667	32.69099
2648	6.36109	3.2654335	76.6182	76.1831	6.967427	32.68385
2649	6.36421	3.2651701	76.3805	75.9469	6.967177	32.67805
2650	6.36672	3.2649193	76.1430	75.7107	6.966995	32.67298
2651	6.36897	3.2646998	75.8989	75.4681	6.966828	32.66850
2652	6.37081	3.2644490	75.6642	75.2347	6.966726	32.66407
2653	6.37255	3.2643236	75.4236	74.9955	6.966574	32.66113
2654	6.37409	3.2641292	75.1799	74.7533	6.966481	32.65762
2655	6.37527	3.2639787	74.9420	74.5168	6.966409	32.65494
2656	6.37614	3.2638157	74.6830	74.2593	6.966380	32.65242
2657	6.37690	3.2637279	74.4273	74.0051	6.966326	32.65083
2658	6.37757	3.2635774	74.1925	73.7717	6.966316	32.64864
2659	6.37818	3.2635146	73.9456	73.5262	6.966268	32.64748
2660	6.37859	3.2634519	73.7080	73.2900	6.966245	32.64650
2661	6.37890	3.2632325	73.4642	73.0477	6.966313	32.64389
2662	6.37921	3.2630319	73.2297	72.8144	6.966372	32.64149
2663	6.37941	3.2628877	72.9825	72.5688	6.966414	32.63981
2664	6.37967	3.2624364	72.7390	72.3266	6.966605	32.63468
2665	6.37997	3.2618286	72.4921	72.0812	6.966869	32.62777
2666	6.38008	3.2610453	72.2605	71.8510	6.967246	32.61910
2667	6.38059	3.2603311	72.0165	71.6084	6.967538	32.61081
2668	6.38141	3.2594916	71.7698	71.3631	6.967857	32.60083
2669	6.38253	3.2586460	71.5292	71.1239	6.968141	32.59050
2670	6.38366	3.2581198	71.2791	70.8752	6.968264	32.58371
2671	6.38473	3.2576187	71.0414	70.6390	6.968381	32.57724
2672	6.38591	3.2571552	70.8097	70.4086	6.968467	32.57109
2673	6.38694	3.2566291	70.5476	70.1481	6.968602	32.56441
2674	6.38806	3.2562158	70.2918	69.8937	6.968668	32.55888
2675	6.38888	3.2556584	70.0512	69.6545	6.968845	32.55203
2676	6.38996	3.2548695	69.7979	69.4027	6.969106	32.54239
2677	6.39119	3.2544062	69.5576	69.1638	6.969185	32.53619
2678	6.39252	3.2539679	69.3044	68.9121	6.969239	32.53019
2679	6.39354	3.2534169	69.0361	68.6454	6.969387	32.52324
2680	6.39462	3.2532040	68.7834	68.3941	6.969358	32.51997
2681	6.39574	3.2524529	68.5366	68.1488	6.969594	32.51070
2682	6.39677	3.2520210	68.2928	67.9064	6.969682	32.50505
2683	6.39800	3.2518018	68.0548	67.6698	6.969638	32.50157
2684	6.39922	3.2513011	67.8111	67.4275	6.969736	32.49497
2685	6.40050	3.2508693	67.5704	67.1882	6.969793	32.48908
2686	6.40189	3.2505563	67.3205	66.9397	6.969777	32.48442
2687	6.40307	3.2502183	67.0858	66.7064	6.969799	32.47967
2688	6.40399	3.2499367	66.8451	66.4671	6.969824	32.47578
2689	6.40511	3.2497176	66.6015	66.2249	6.969792	32.47240
2690	6.40629	3.2494735	66.3605	65.9854	6.969767	32.46869
2691	6.40742	3.2492232	66.1196	65.7458	6.969751	32.46496
2692	6.40896	3.2487539	65.8759	65.5036	6.969796	32.45842
2693	6.41049	3.2484160	65.6322	65.2613	6.969774	32.45334
2694	6.41193	3.2479468	65.3914	65.0219	6.969831	32.44689
2695	6.41336	3.2475776	65.1506	64.7824	6.969837	32.44156
2696	6.41531	3.2471710	64.9098	64.5431	6.969801	32.43532
2697	6.41741	3.2466455	64.6630	64.2977	6.969805	32.42762
2698	6.41941	3.2461513	64.4192	64.0553	6.969806	32.42037
2699	6.42120	3.2457447	64.1814	63.8189	6.969787	32.41428
2700	6.42294	3.2454382	63.9407	63.5796	6.969725	32.40935
2701	6.42448	3.2450317	63.7001	63.3404	6.969738	32.40350
2702	6.42596	3.2446314	63.4531	63.0948	6.969753	32.39778
2703	6.42766	3.2442249	63.2125	62.8556	6.969747	32.39179
2704	6.42924	3.2438246	62.9747	62.6192	6.969750	32.38597
2705	6.43088	3.2434182	62.7337	62.3796	6.969750	32.38003
2706	6.43273	3.2429867	62.4841	62.1315	6.969738	32.37363
2707	6.43447	3.2424927	62.2463	61.8950	6.969770	32.36663
2708	6.43626	3.2421488	61.9965	61.6466	6.969719	32.36124
2709	6.43796	3.2416862	61.7467	61.3983	6.969741	32.35464
2710	6.43934	3.2413736	61.5027	61.1557	6.969725	32.34999
2711	6.44093	3.2409110	61.2681	60.9224	6.969759	32.34348
2712	6.44216	3.2406921	61.0275	60.6832	6.969715	32.34000
2713	6.44334	3.2402608	60.7836	60.4407	6.969783	32.33423
2714	6.44472	3.2398607	60.5367	60.1953	6.969810	32.32862
2715	6.44600	3.2394857	60.2929	59.9529	6.969838	32.32337
2716	6.44708	3.2392107	60.0491	59.7105	6.969840	32.31943
2717	6.44800	3.2388669	59.8051	59.4680	6.969895	32.31487
2718	6.44882	3.2384357	59.5612	59.2255	6.970007	32.30944
2719	6.44929	3.2378483	59.3205	58.9862	6.970241	32.30263
2720	6.44985	3.2372610	59.0767	58.7437	6.970462	32.29572
2721	6.45046	3.2367673	58.8209	58.4894	6.970629	32.28980
2722	6.45103	3.2360239	58.5830	58.2529	6.970929	32.28117
2723	6.45190	3.2351556	58.3423	58.0135	6.971254	32.27086
2724	6.45267	3.2347870	58.0954	57.7681	6.971340	32.26618
2725	6.45375	3.2341999	57.8639	57.5380	6.971499	32.25878
2726	6.45493	3.2336128	57.6111	57.2866	6.971645	32.25130
2727	6.45616	3.2330257	57.3609	57.0379	6.971785	32.24377
2728	6.45744	3.2323451	57.1203	56.7987	6.971966	32.23515
2729	6.45918	3.2317019	56.8794	56.5591	6.972071	32.22651
2730	6.46098	3.2311149	56.6326	56.3138	6.972142	32.21845
2731	6.46246	3.2308339	56.3857	56.0683	6.972097	32.21406
2732	6.46411	3.2301846	56.1449	55.8289	6.972218	32.20545
2733	6.46580	3.2296602	55.9013	55.5867	6.972270	32.19818
2734	6.46759	3.2292607	55.6544	55.3412	6.972247	32.19219
2735	6.46929	3.2289235	55.4073	55.0955	6.972205	32.18699
2736	6.47124	3.2281184	55.1635	54.8532	6.972367	32.17638
2737	6.47334	3.2276003	54.9166	54.6076	6.972365	32.16879
2738	6.47519	3.2271634	54.6669	54.3594	6.972354	32.16235
2739	6.47693	3.2266392	54.4200	54.1139	6.972400	32.15503
2740	6.47898	3.2260589	54.1852	53.8804	6.972436	32.14681
2741	6.48103	3.2254411	53.9385	53.6351	6.972491	32.13817
2742	6.48288	3.2248546	53.6916	53.3897	6.972555	32.13008
2743	6.48488	3.2240873	53.4478	53.1473	6.972691	32.11984
2744	6.48699	3.2233138	53.2070	52.9079	6.972817	32.10944
2745	6.48889	3.2226713	52.9664	52.6687	6.972903	32.10068
2746	6.49089	3.2217919	52.7194	52.4231	6.973095	32.08921
2747	6.49294	3.2209812	52.4788	52.1838	6.973246	32.07845
2748	6.49468	3.2202703	52.2377	51.9442	6.973385	32.06909
2749	6.49628	3.2196592	51.9911	51.6990	6.973492	32.06097
2750	6.49776	3.2190108	51.7502	51.4594	6.973630	32.05253
2751	6.49930	3.2183998	51.5005	51.2112	6.973744	32.04447
2752	6.50100	3.2175395	51.2565	50.9686	6.973963	32.03351
2753	6.50249	3.2168601	51.0096	50.7231	6.974117	32.02473
2754	6.50392	3.2163739	50.7659	50.4808	6.974180	32.01814
2755	6.50562	3.2153893	50.5188	50.2351	6.974461	32.00581
2756	6.50793	3.2143175	50.2691	49.9868	6.974711	31.99195
2757	6.51070	3.2134265	50.0221	49.7413	6.974814	31.97965
2758	6.51311	3.2126290	49.7784	49.4990	6.974914	31.96872
2759	6.51543	3.2120185	49.5314	49.2534	6.974933	31.95994
2760	6.51779	3.2112523	49.2907	49.0140	6.975023	31.94940
2761	6.52005	3.2105734	49.0407	48.7655	6.975082	31.93993
2762	6.52251	3.2098073	48.7878	48.5140	6.975159	31.92930
2763	6.52524	3.2087985	48.5410	48.2686	6.975327	31.91576
2764	6.52832	3.2079392	48.2970	48.0260	6.975376	31.90353
2765	6.53212	3.2068684	48.0501	47.7805	6.975442	31.88831
2766	6.53649	3.2054927	47.8126	47.5444	6.975592	31.86920
2767	6.54054	3.2043350	47.5594	47.2927	6.975670	31.85279
2768	6.54471	3.2029909	47.3187	47.0534	6.975829	31.83422
2769	6.54810	3.2016158	47.0719	46.8079	6.976097	31.81605
2770	6.55118	3.2004836	46.8281	46.5656	6.976281	31.80084
2771	6.55303	3.1999051	46.5841	46.3230	6.976339	31.79286
2772	6.55468	3.1988664	46.3372	46.0775	6.976652	31.78002
2773	6.55601	3.1980143	46.0966	45.8382	6.976910	31.76952
2774	6.55658	3.1971624	45.8527	45.5957	6.977261	31.75974
2775	6.55694	3.1962173	45.5968	45.3413	6.977684	31.74913
2776	6.55673	3.1954526	45.3558	45.1017	6.978087	31.74102
2777	6.55637	3.1946320	45.1122	44.8594	6.978536	31.73244
2778	6.55617	3.1940850	44.8591	44.6078	6.978829	31.72674
2779	6.55648	3.1935628	44.6185	44.3686	6.979047	31.72082
2780	6.55740	3.1929537	44.3655	44.1170	6.979233	31.71338
2781	6.55935	3.1925310	44.1003	43.8534	6.979199	31.70704
2782	6.56342	3.1921643	43.8380	43.5925	6.978880	31.69937
2783	6.56835	3.1917914	43.5972	43.3532	6.978457	31.69081
2784	6.57375	3.1914619	43.3474	43.1047	6.977956	31.68230
2785	6.57915	3.1911263	43.0977	42.8565	6.977458	31.67372
2786	6.58573	3.1907968	42.8354	42.5957	6.976811	31.66413
2787	6.59294	3.1904922	42.5702	42.3320	6.976076	31.65424
2788	6.59968	3.1904921	42.3234	42.0866	6.975246	31.64812
2789	6.60781	3.1902745	42.0735	41.8381	6.974355	31.63833
2790	6.61620	3.1900631	41.8234	41.5894	6.973429	31.62837
2791	6.62531	3.1899449	41.5735	41.3410	6.972369	31.61877
2792	6.63406	3.1897584	41.3327	41.1016	6.971386	31.60875
2793	6.64287	3.1893917	41.0919	40.8621	6.970487	31.59671
2794	6.65199	3.1892425	40.8330	40.6046	6.969441	31.58678
2795	6.66137	3.1890000	40.5892	40.3622	6.968411	31.57558
2796	6.66972	3.1889378	40.3483	40.1227	6.967417	31.56732
2797	6.67698	3.1886767	40.1106	39.8863	6.966653	31.55787
2798	6.68281	3.1881797	39.8605	39.6377	6.966183	31.54717
2799	6.68678	3.1875710	39.6137	39.3923	6.965995	31.53696
2800	6.68900	3.1866704	39.3518	39.1319	6.966166	31.52518
2801	6.68946	3.1854160	39.0773	38.8589	6.966726	31.51114
2802	6.68920	3.1839260	38.8245	38.6075	6.967492	31.49518
2803	6.68905	3.1828644	38.5744	38.3589	6.968033	31.48381
2804	6.68941	3.1807419	38.3183	38.1043	6.969037	31.46036
2805	6.69003	3.1797428	38.0685	37.8558	6.969452	31.44897
2806	6.69085	3.1781359	37.8247	37.6135	6.970144	31.43073
2807	6.69189	3.1769572	37.5716	37.3618	6.970597	31.41700
2808	6.69359	3.1758966	37.3187	37.1103	6.970910	31.40394
2809	6.69622	3.1747182	37.0657	36.8588	6.971168	31.38875
2810	6.69921	3.1734780	36.8127	36.6072	6.971412	31.37256
2811	6.70236	3.1727836	36.5719	36.3678	6.971366	31.36219
2812	6.70519	3.1720891	36.3189	36.1162	6.971357	31.35211
2813	6.70875	3.1710601	36.0751	35.8738	6.971427	31.33771
2814	6.71252	3.1704278	35.8314	35.6315	6.971274	31.32747
2815	6.71680	3.1695476	35.5935	35.3949	6.971180	31.31404
2816	6.72093	3.1691261	35.3254	35.1284	6.970878	31.30578
2817	6.72459	3.1678000	35.0601	34.8645	6.971081	31.28806
2818	6.72821	3.1670069	34.8135	34.6194	6.971026	31.27621
2819	6.73213	3.1659599	34.5756	34.3828	6.971059	31.26130
2820	6.73621	3.1652970	34.3285	34.1370	6.970882	31.25045
2821	6.74080	3.1644546	34.0819	33.8919	6.970731	31.23717
2822	6.74504	3.1641200	33.8348	33.6461	6.970372	31.22977
2823	6.74984	3.1633149	33.5848	33.3976	6.970176	31.21672
2824	6.75650	3.1625531	33.3442	33.1583	6.969731	31.20245
2825	6.76311	3.1620700	33.1004	32.9159	6.969155	31.19127
2826	6.76968	3.1613517	32.8567	32.6736	6.968700	31.17758
2827	6.77665	3.1605963	32.6036	32.4220	6.968213	31.16312
2828	6.78358	3.1600700	32.3565	32.1762	6.967619	31.15120
2829	6.79143	3.1598160	32.1159	31.9369	6.966776	31.14141
2830	6.79986	3.1594817	31.8718	31.6942	6.965903	31.13023
2831	6.80943	3.1586088	31.6250	31.4489	6.965156	31.11215
2832	6.82050	3.1583425	31.3812	31.2064	6.963925	31.09933
2833	6.83390	3.1580081	31.1314	30.9580	6.962442	31.08367
2834	6.85108	3.1586082	30.8904	30.7184	6.960037	31.07477
2835	6.87117	3.1591216	30.6406	30.4700	6.957319	31.06231
2836	6.89127	3.1598145	30.3998	30.2305	6.954513	31.05179
2837	6.91164	3.1603218	30.1560	29.9881	6.951768	31.03902
2838	6.93586	3.1610767	29.9120	29.7455	6.948432	31.02549
2839	6.96134	3.1622279	29.6621	29.4970	6.944751	31.01513
2840	6.98590	3.1629706	29.4183	29.2546	6.941386	31.00118
2841	7.00902	3.1636948	29.1746	29.0122	6.938207	30.98833
2842	7.03085	3.1638431	28.9335	28.7726	6.935469	30.97042
2843	7.05290	3.1641463	28.6899	28.5303	6.932630	30.95400
2844	7.07325	3.1642017	28.4337	28.2755	6.930120	30.93645
2845	7.09340	3.1651119	28.1687	28.0120	6.927221	30.92834
2846	7.11496	3.1658053	27.9189	27.7636	6.924256	30.91662
2847	7.13935	3.1664987	27.6687	27.5148	6.920951	30.90238
2848	7.16887	3.1667028	27.4127	27.2603	6.917262	30.87829
2849	7.20107	3.1676131	27.1568	27.0058	6.912909	30.85945
2850	7.23968	3.1681826	26.9037	26.7541	6.907949	30.83125
2851	7.28224	3.1693284	26.6508	26.5026	6.902238	30.80577
2852	7.32647	3.1701149	26.4069	26.2601	6.896505	30.77499
2853	7.36892	3.1711680	26.1598	26.0145	6.890868	30.74871
2854	7.41235	3.1720477	25.9069	25.7630	6.885201	30.71975
2855	7.46150	3.1731320	25.6601	25.5175	6.878755	30.68796
2856	7.52024	3.1757666	25.4131	25.2719	6.870429	30.66435
2857	7.59704	3.1787926	25.1570	25.0172	6.859769	30.62906
2858	7.67562	3.1809386	24.9101	24.7717	6.849338	30.58292
2859	7.75980	3.1842458	24.6664	24.5294	6.837719	30.54435
2860	7.84459	3.1861882	24.4103	24.2748	6.826697	30.49091
2861	7.91876	3.1879447	24.1543	24.0202	6.817051	30.44494
2862	7.99004	3.1892048	23.8982	23.7656	6.807999	30.39638
2863	8.05739	3.1896451	23.6301	23.4989	6.799808	30.34274
2864	8.11631	3.1910794	23.3800	23.2503	6.792171	30.30698
2865	8.17467	3.1930858	23.1362	23.0079	6.784351	30.27778
2866	8.23547	3.1948813	22.8771	22.7501	6.776355	30.24434
2867	8.29900	3.1971932	22.6303	22.5048	6.767818	30.21404
2868	8.35983	3.1988403	22.3714	22.2473	6.759917	30.17918
2869	8.41474	3.2001519	22.1305	22.0077	6.752879	30.14597
2870	8.46896	3.2020298	21.8803	21.7589	6.745675	30.11932
2871	8.52719	3.2037526	21.6244	21.5045	6.738085	30.08769
2872	8.58638	3.2046106	21.3744	21.2558	6.730786	30.04634
2873	8.64544	3.2054625	21.1246	21.0074	6.723516	30.00514
2874	8.70675	3.2067876	20.8715	20.7558	6.715785	29.96703
2875	8.77261	3.2082497	20.6245	20.5102	6.707479	29.92659
2876	8.83347	3.2098368	20.3745	20.2616	6.699713	29.89176
2877	8.89263	3.2109072	20.1186	20.0071	6.692386	29.85313
2878	8.94604	3.2119902	19.8656	19.7555	6.685730	29.81954
2879	8.99990	3.2133911	19.6156	19.5069	6.678892	29.78890
2880	9.05488	3.2142191	19.3687	19.2614	6.672188	29.75153
2881	9.10950	3.2146171	19.1217	19.0158	6.665722	29.71014
2882	9.17472	3.2147659	18.8688	18.7643	6.658155	29.65749
2883	9.24682	3.2151950	18.6248	18.5217	6.649691	29.60216
2884	9.31888	3.2151070	18.3630	18.2613	6.641469	29.54177
2885	9.40216	3.2149814	18.0883	17.9882	6.631993	29.47197
2886	9.49425	3.2158028	17.8293	17.7306	6.621127	29.40479
2887	9.59710	3.2199216	17.5764	17.4791	6.607662	29.36236
2888	9.72464	3.2231815	17.3172	17.2213	6.591811	29.29135
2889	9.87829	3.2273657	17.0643	16.9698	6.572688	29.20882
2890	10.05314	3.2311523	16.8235	16.7304	6.551441	29.10575
2891	10.23240	3.2359836	16.5643	16.4726	6.529380	29.01024
2892	10.41251	3.2405739	16.3111	16.2208	6.507444	28.91235
