Scan Count	Temperature [ITS-90, deg C]	Conductivity [S/m]	Pressure, Strain Gauge [db]	Depth [salt water, m]	Oxygen Saturation, Weiss [ml/l]	Salinity, Practical [PSU]
1	14.49446	0.0096457	0.0653	0.0649	7.122715	0.05904
2	14.47325	0.0097138	0.0623	0.0620	7.125999	0.05945
3	14.44225	0.0097757	0.0562	0.0559	7.130813	0.05985
4	14.41387	0.0097912	0.0623	0.0620	7.135237	0.05997
5	14.37232	0.0097633	0.0592	0.0589	7.141735	0.05985
6	14.29585	0.0098191	0.0592	0.0589	7.153693	0.06026
7	14.20245	0.0104045	0.0653	0.0650	7.168212	0.06380
8	14.11525	0.0110799	0.0592	0.0589	7.181780	0.06789
9	14.03852	0.0112689	0.0561	0.0558	7.193862	0.06911
10	13.96276	0.0113154	0.0591	0.0588	7.205864	0.06949
11	13.88617	0.0115819	0.0593	0.0590	7.217975	0.07118
12	13.81962	0.0128220	0.0593	0.0589	7.228257	0.07870
13	13.76467	0.0142522	0.0593	0.0589	7.236655	0.08741
14	13.71736	0.0160156	0.0623	0.0620	7.243752	0.09820
15	13.68027	0.0172676	0.0531	0.0528	7.249359	0.10592
16	13.63220	0.0191205	0.0562	0.0559	7.256568	0.11740
17	13.56267	0.0204304	0.0562	0.0559	7.267397	0.12567
18	13.48908	0.0200290	0.0653	0.0649	7.279386	0.12340
19	13.42339	0.0195809	0.0592	0.0589	7.290143	0.12081
20	13.36401	0.0192823	0.0624	0.0620	7.299861	0.11913
21	13.30473	0.0188406	0.0593	0.0589	7.309626	0.11655
22	13.25099	0.0188842	0.0592	0.0589	7.318373	0.11696
23	13.20918	0.0186603	0.0593	0.0589	7.325263	0.11568
24	13.17748	0.0225478	0.0653	0.0649	7.329341	0.14006
25	13.14582	0.0229466	0.0592	0.0589	7.334410	0.14267
26	13.10979	0.0225322	0.0623	0.0620	7.340433	0.14019
27	13.07807	0.0216446	0.0562	0.0559	7.345894	0.13471
28	13.06833	0.0205736	0.0593	0.0590	7.347800	0.12802
29	13.07149	0.0194534	0.0622	0.0618	7.347600	0.12100
30	13.08811	0.0186012	0.0623	0.0620	7.345113	0.11563
31	13.11193	0.0178395	0.0654	0.0650	7.341420	0.11083
32	13.13137	0.0171060	0.0562	0.0559	7.338439	0.10623
33	13.15076	0.0166027	0.0593	0.0590	7.335403	0.10306
34	13.16491	0.0162796	0.0624	0.0620	7.333176	0.10103
35	13.15387	0.0160404	0.0683	0.0680	7.335052	0.09958
36	13.13527	0.0157951	0.0624	0.0620	7.338169	0.09811
37	13.11473	0.0157205	0.0623	0.0619	7.341559	0.09769
38	13.12253	0.0154162	0.0623	0.0619	7.340365	0.09579
39	13.15643	0.0154504	0.0562	0.0559	7.334798	0.09593
40	13.19036	0.0151865	0.0654	0.0650	7.329316	0.09424
41	13.20294	0.0150313	0.0654	0.0651	7.327302	0.09325
42	13.16583	0.0151306	0.0624	0.0620	7.333349	0.09394
43	13.13051	0.0150219	0.0593	0.0590	7.339166	0.09335
44	13.12369	0.0148512	0.0654	0.0651	7.340334	0.09231
45	13.13094	0.0148357	0.0593	0.0590	7.339149	0.09220
46	12.78785	0.0372805	0.1020	0.1014	7.389211	0.23605
47	11.49169	0.8217414	0.1568	0.1559	7.325092	6.31349
48	10.31511	2.3835809	0.2358	0.2345	6.870798	20.67762
49	9.47942	2.7603219	0.3545	0.3526	6.818022	24.86054
50	8.93033	2.7730377	0.4794	0.4768	6.881184	25.37332
51	8.53734	2.7859803	0.5950	0.5918	6.925056	25.78781
52	8.26726	2.7910452	0.6619	0.6583	6.957120	26.03800
53	8.10719	2.7984426	0.6955	0.6917	6.974167	26.23319
54	7.98196	2.8129077	0.7108	0.7068	6.983471	26.47695
55	7.91755	2.8202840	0.6925	0.6887	6.988270	26.60235
56	7.89906	2.8284983	0.6348	0.6313	6.986787	26.70185
57	7.86981	2.8401999	0.5981	0.5948	6.985039	26.84605
58	7.84444	2.8347662	0.6073	0.6040	6.990833	26.80891
59	7.82472	2.8360027	0.6622	0.6585	6.992777	26.83692
60	7.84259	2.8448584	0.6865	0.6828	6.986329	26.91549
61	7.88712	2.8440963	0.6652	0.6615	6.981003	26.87330
62	8.07223	2.8498328	0.5892	0.5859	6.954782	26.79110
63	8.28849	2.8503072	0.5099	0.5071	6.927212	26.63164
64	8.41937	2.8323424	0.4734	0.4708	6.918917	26.34875
65	8.35485	2.8273718	0.5221	0.5192	6.929335	26.34596
66	8.22831	2.8370987	0.6043	0.6010	6.940888	26.54101
67	8.14116	2.8550980	0.6835	0.6797	6.943615	26.79294
68	8.11803	2.8586446	0.7353	0.7312	6.944901	26.84728
69	8.26094	2.8621674	0.7748	0.7705	6.925246	26.77464
70	8.42104	2.8685743	0.7778	0.7735	6.902212	26.71902
71	8.53351	2.8709374	0.7321	0.7281	6.887076	26.65825
72	8.60784	2.8646696	0.6470	0.6434	6.880630	26.53832
73	8.62369	2.8531393	0.5404	0.5374	6.883845	26.40885
74	8.49634	2.8320565	0.4765	0.4739	6.909347	26.28844
75	8.31060	2.8304009	0.4826	0.4800	6.933545	26.41021
76	8.16468	2.8522083	0.5374	0.5345	6.941974	26.74520
77	8.08514	2.8658141	0.5983	0.5950	6.945735	26.94679
78	8.15217	2.8677769	0.6258	0.6223	6.936365	26.91568
79	8.34577	2.8693749	0.6379	0.6343	6.911280	26.78441
80	8.50648	2.8622247	0.6562	0.6526	6.894398	26.58946
81	8.57703	2.8521509	0.7079	0.7040	6.890128	26.43353
82	8.45393	2.8496030	0.7778	0.7736	6.906717	26.49964
83	8.31645	2.8690588	0.8144	0.8099	6.915107	26.80338
84	8.24775	2.8738247	0.7840	0.7797	6.921549	26.90493
85	8.35216	2.8719542	0.6926	0.6888	6.909300	26.80606
86	8.50136	2.8613123	0.5648	0.5617	6.895451	26.58401
87	8.51274	2.8399144	0.4461	0.4437	6.903721	26.35659
88	8.35425	2.8333531	0.4035	0.4013	6.926674	26.40785
89	8.19394	2.8488373	0.4157	0.4134	6.939827	26.68818
90	8.09448	2.8669239	0.5071	0.5043	6.944039	26.95116
91	8.02025	2.8716289	0.6410	0.6374	6.951238	27.05707
92	8.02579	2.8746272	0.7779	0.7736	6.949145	27.08388
93	8.13507	2.8692635	0.8449	0.8403	6.937839	26.94409
94	8.35780	2.8703718	0.8206	0.8161	6.909318	26.78545
95	8.52644	2.8754828	0.7323	0.7282	6.885901	26.71012
96	8.62753	2.8695155	0.6288	0.6254	6.875993	26.57302
97	8.60843	2.8513286	0.5375	0.5345	6.886567	26.40175
98	8.42809	2.8425086	0.4980	0.4952	6.913189	26.44642
99	8.25429	2.8490927	0.4919	0.4892	6.932085	26.64503
100	8.15580	2.8617985	0.5284	0.5255	6.938666	26.85111
101	8.10954	2.8730554	0.5923	0.5891	6.939300	27.00308
102	8.07452	2.8781761	0.6533	0.6497	6.941344	27.08312
103	8.13678	2.8812182	0.6897	0.6859	6.932095	27.06661
104	8.28302	2.8835251	0.7049	0.7010	6.912669	26.97803
105	8.40102	2.8832130	0.6958	0.6920	6.898048	26.88463
106	8.46293	2.8735658	0.6714	0.6677	6.894700	26.73855
107	8.46142	2.8598636	0.6532	0.6496	6.901112	26.59921
108	8.34630	2.8422000	0.6593	0.6557	6.923636	26.50459
109	8.19570	2.8465215	0.6685	0.6648	6.940675	26.66284
110	8.09955	2.8709175	0.6564	0.6528	6.941551	26.98858
111	8.03789	2.8754575	0.6289	0.6254	6.947229	27.08321
112	8.04482	2.8603266	0.5833	0.5800	6.953383	26.92087
113	8.04562	2.8416377	0.5559	0.5528	6.961966	26.72650
114	7.98723	2.8351868	0.5711	0.5679	6.972402	26.70410
115	7.92728	2.8369290	0.6167	0.6133	6.979235	26.76796
116	7.88366	2.8507695	0.6685	0.6649	6.978315	26.94545
117	7.86652	2.8682392	0.7050	0.7011	6.972304	27.14079
118	7.86397	2.8773473	0.7111	0.7072	6.968355	27.23779
119	7.96147	2.8726566	0.7021	0.6982	6.958196	27.11318
120	8.10078	2.8600399	0.6838	0.6800	6.946435	26.87495
121	8.14698	2.8584118	0.6595	0.6559	6.941347	26.82277
122	8.13234	2.8614290	0.6138	0.6105	6.941801	26.86519
123	8.10334	2.8541093	0.5773	0.5741	6.948856	26.81162
124	8.02595	2.8396335	0.5743	0.5711	6.965400	26.72071
125	7.94355	2.8354963	0.5896	0.5863	6.977828	26.74064
126	7.89094	2.8409610	0.6230	0.6196	6.981984	26.83774
127	7.87209	2.8621710	0.6352	0.6317	6.974441	27.07322
128	7.86084	2.8689197	0.6443	0.6408	6.972705	27.15232
129	7.84598	2.8708065	0.6504	0.6468	6.973706	27.18356
130	7.87198	2.8658996	0.6778	0.6741	6.972706	27.11216
131	7.87740	2.8600420	0.7052	0.7013	6.974765	27.04689
132	7.87729	2.8686092	0.7174	0.7135	6.970762	27.13628
133	7.88727	2.8803477	0.6962	0.6924	6.963995	27.25094
134	7.94163	2.8825296	0.6506	0.6470	6.956096	27.23137
135	8.10073	2.8703145	0.5866	0.5834	6.941681	26.98146
136	8.21246	2.8580475	0.5562	0.5532	6.933246	26.76912
137	8.19100	2.8517553	0.5532	0.5501	6.938856	26.72049
138	8.11423	2.8635943	0.5623	0.5593	6.943086	26.90149
139	8.06823	2.8763953	0.6018	0.5985	6.942963	27.06953
140	8.02824	2.8821520	0.6475	0.6440	6.945335	27.16019
141	8.08973	2.8823249	0.6811	0.6774	6.937505	27.11439
142	8.18832	2.8847881	0.7145	0.7106	6.923969	27.06383
143	8.25761	2.8857087	0.7236	0.7197	6.914853	27.02005
144	8.31479	2.8835547	0.7145	0.7106	6.908678	26.95401
145	8.41022	2.8831830	0.6842	0.6804	6.896912	26.87731
146	8.51290	2.8795706	0.6264	0.6229	6.885737	26.76227
147	8.56742	2.8763069	0.5899	0.5866	6.880418	26.68766
148	8.56839	2.8749088	0.5685	0.5654	6.880928	26.67264
149	8.46735	2.8707350	0.5777	0.5746	6.895431	26.70621
150	8.34555	2.8627690	0.5990	0.5958	6.914325	26.71663
151	8.22863	2.8725705	0.6204	0.6170	6.924527	26.90668
152	8.16190	2.8821508	0.6448	0.6412	6.928504	27.05692
153	8.14971	2.8837835	0.6600	0.6564	6.929282	27.08321
154	8.26528	2.8819226	0.6935	0.6897	6.915629	26.97511
155	8.36414	2.8832134	0.7178	0.7139	6.902658	26.91276
156	8.41646	2.8850730	0.7210	0.7170	6.895272	26.89196
157	8.44494	2.8827222	0.6754	0.6717	6.892786	26.84615
158	8.51263	2.8808858	0.6297	0.6262	6.885175	26.77595
159	8.56855	2.8760619	0.6023	0.5990	6.880388	26.68429
160	8.55445	2.8736545	0.5902	0.5870	6.883232	26.67031
161	8.46174	2.8763976	0.5932	0.5900	6.893560	26.76852
162	8.39102	2.8830935	0.6085	0.6052	6.899351	26.89106
163	8.35119	2.8842123	0.6359	0.6324	6.903820	26.93297
164	8.33400	2.8842124	0.6725	0.6688	6.905971	26.94610
165	8.35114	2.8828128	0.6847	0.6809	6.904467	26.91858
166	8.35399	2.8857915	0.6847	0.6809	6.902750	26.94707
167	8.36484	2.8887234	0.6604	0.6568	6.900054	26.96895
168	8.38295	2.8881427	0.6452	0.6417	6.898057	26.94913
169	8.38118	2.8816345	0.6331	0.6296	6.901246	26.88355
170	8.35791	2.8838115	0.6301	0.6267	6.903163	26.92371
171	8.31967	2.8901842	0.6300	0.6266	6.905031	27.01862
172	8.30148	2.8903281	0.6361	0.6326	6.907241	27.03406
173	8.31677	2.8884366	0.6515	0.6479	6.906194	27.00282
174	8.35818	2.8900702	0.6606	0.6569	6.900272	26.98792
175	8.39457	2.8924885	0.6576	0.6540	6.894626	26.98494
176	8.41921	2.8933445	0.6606	0.6570	6.891164	26.97490
177	8.43094	2.8946141	0.6729	0.6692	6.889125	26.97897
178	8.43778	2.8925420	0.6577	0.6541	6.889215	26.95246
179	8.48303	2.8922541	0.6273	0.6239	6.883710	26.91499
180	8.56018	2.8870220	0.5908	0.5875	6.876480	26.80276
181	8.58816	2.8787689	0.5817	0.5785	6.876723	26.69718
182	8.54695	2.8747955	0.6000	0.5967	6.883652	26.68764
183	8.42728	2.8808029	0.6457	0.6422	6.895864	26.83989
184	8.34646	2.8875985	0.6883	0.6845	6.902865	26.97143
185	8.30733	2.8896995	0.7157	0.7118	6.906798	27.02306
186	8.43649	2.8888903	0.7189	0.7150	6.891038	26.91591
187	8.58281	2.8866210	0.7037	0.6998	6.873849	26.78146
188	8.67180	2.8827201	0.6702	0.6666	6.864552	26.67444
189	8.70794	2.8795389	0.6246	0.6212	6.861494	26.61486
190	8.68366	2.8774831	0.5790	0.5758	6.865428	26.61216
191	8.55834	2.8705132	0.5607	0.5576	6.884166	26.63526
192	8.41684	2.8726523	0.5729	0.5698	6.900877	26.76415
193	8.34013	2.8831537	0.6035	0.6002	6.905687	26.93054
194	8.29037	2.8857263	0.6401	0.6366	6.910739	26.99513
195	8.32101	2.8863961	0.6766	0.6729	6.906598	26.97853
196	8.44031	2.8851326	0.7192	0.7153	6.892269	26.87441
197	8.53761	2.8802579	0.7406	0.7365	6.882348	26.75055
198	8.58589	2.8828345	0.7254	0.7214	6.875174	26.74040
199	8.61206	2.8867344	0.6767	0.6730	6.870164	26.76051
200	8.62731	2.8826367	0.6098	0.6065	6.870113	26.70715
201	8.64538	2.8731101	0.5643	0.5612	6.872151	26.59632
202	8.57071	2.8625641	0.5673	0.5641	6.886213	26.54470
203	8.41049	2.8767984	0.5886	0.5854	6.899784	26.81155
204	8.30502	2.8833634	0.6101	0.6067	6.909987	26.95955
205	8.31554	2.8830942	0.6404	0.6369	6.908793	26.94872
206	8.43245	2.8802888	0.6862	0.6824	6.895453	26.83067
207	8.52795	2.8741386	0.7258	0.7218	6.886321	26.69522
208	8.57838	2.8760798	0.7380	0.7339	6.879157	26.67701
209	8.60173	2.8808850	0.7168	0.7128	6.874084	26.70852
210	8.61238	2.8813154	0.6620	0.6584	6.872564	26.70490
211	8.61244	2.8761691	0.6195	0.6161	6.874875	26.65230
212	8.60784	2.8715099	0.5800	0.5768	6.877546	26.60819
213	8.59243	2.8731942	0.5677	0.5646	6.878706	26.63699
214	8.57330	2.8780399	0.5830	0.5798	6.878902	26.70094
215	8.55046	2.8797735	0.6106	0.6072	6.880965	26.73593
216	8.53178	2.8814597	0.6532	0.6496	6.882529	26.76730
217	8.54522	2.8799709	0.6897	0.6859	6.881529	26.74188
218	8.56909	2.8803712	0.7202	0.7162	6.878377	26.72791
219	8.58811	2.8826910	0.7081	0.7042	6.874963	26.73727
220	8.61217	2.8827505	0.6838	0.6800	6.871945	26.71971
221	8.66319	2.8797725	0.6352	0.6317	6.866944	26.65087
222	8.69949	2.8760488	0.6017	0.5984	6.864107	26.58566
223	8.66108	2.8702257	0.6078	0.6045	6.871496	26.55510
224	8.51328	2.8734399	0.6414	0.6379	6.888467	26.69918
225	8.39882	2.8803190	0.6718	0.6682	6.899641	26.85657
226	8.36070	2.8812640	0.6780	0.6742	6.903978	26.89534
227	8.47370	2.8799177	0.6506	0.6470	6.890470	26.79553
228	8.58789	2.8723402	0.6021	0.5988	6.879657	26.63167
229	8.64722	2.8687989	0.5807	0.5775	6.873861	26.55095
230	8.53443	2.8546415	0.5899	0.5867	6.894333	26.49091
231	8.35823	2.8684017	0.6326	0.6291	6.910161	26.76493
232	8.24845	2.8753958	0.6753	0.6716	6.920738	26.92066
233	8.26238	2.8761126	0.7118	0.7079	6.918660	26.91738
234	8.37505	2.8755679	0.7271	0.7231	6.904782	26.82580
235	8.46611	2.8691171	0.7119	0.7080	6.896323	26.69051
236	8.51371	2.8635012	0.6785	0.6748	6.892916	26.59708
237	8.53205	2.8638708	0.6451	0.6416	6.890454	26.58707
238	8.47812	2.8678634	0.6483	0.6447	6.895388	26.66860
239	8.41835	2.8713684	0.6239	0.6204	6.901274	26.74980
240	8.39903	2.8722822	0.6026	0.5993	6.903276	26.77385
241	8.40968	2.8705444	0.6026	0.5993	6.902734	26.74792
242	8.43535	2.8694576	0.6058	0.6024	6.900015	26.71731
243	8.43320	2.8704009	0.6242	0.6207	6.899855	26.72861
244	8.42297	2.8726224	0.6273	0.6238	6.900124	26.75917
245	8.42518	2.8733690	0.6335	0.6300	6.899508	26.76516
246	8.42335	2.8706578	0.6669	0.6633	6.900972	26.73869
247	8.40022	2.8674941	0.7127	0.7088	6.905312	26.72372
248	8.35098	2.8709690	0.7462	0.7421	6.909899	26.79680
249	8.30062	2.8747680	0.7370	0.7330	6.914478	26.87429
250	8.31999	2.8759089	0.7067	0.7028	6.911525	26.87127
251	8.43024	2.8706816	0.6550	0.6514	6.900099	26.73372
252	8.50298	2.8664368	0.6094	0.6061	6.892927	26.63525
253	8.51047	2.8657504	0.5821	0.5789	6.892300	26.62258
254	8.43395	2.8695173	0.5700	0.5669	6.900162	26.71899
255	8.37806	2.8719122	0.5822	0.5790	6.906071	26.78598
256	8.32955	2.8720261	0.6066	0.6033	6.912101	26.82404
257	8.27788	2.8707726	0.6432	0.6397	6.919163	26.85050
258	8.23736	2.8728273	0.6737	0.6700	6.923312	26.90263
259	8.24223	2.8743384	0.6890	0.6852	6.922005	26.91449
260	8.29456	2.8751982	0.7134	0.7094	6.915041	26.88336
261	8.38602	2.8721689	0.7164	0.7125	6.904959	26.78252
262	8.45032	2.8702276	0.7013	0.6975	6.897793	26.71384
263	8.47392	2.8706275	0.6862	0.6824	6.894660	26.70010
264	8.48610	2.8730220	0.6620	0.6583	6.892051	26.71544
265	8.50249	2.8738820	0.6407	0.6371	6.889614	26.71186
266	8.50858	2.8731413	0.6103	0.6069	6.889188	26.69968
267	8.50260	2.8704839	0.5799	0.5767	6.891139	26.67700
268	8.48680	2.8672605	0.5709	0.5677	6.894575	26.65590
269	8.43794	2.8658645	0.6012	0.5979	6.901325	26.67849
270	8.35506	2.8697986	0.6166	0.6132	6.909920	26.78171
271	8.29981	2.8720861	0.6563	0.6527	6.915806	26.84730
272	8.25734	2.8738246	0.6899	0.6861	6.920343	26.89763
273	8.28758	2.8743679	0.7233	0.7194	6.916297	26.88012
274	8.36898	2.8745762	0.7417	0.7376	6.905996	26.82022
275	8.44392	2.8749100	0.7417	0.7377	6.896466	26.76672
276	8.50114	2.8751664	0.7083	0.7044	6.889201	26.72602
277	8.54771	2.8745387	0.6535	0.6499	6.883675	26.68442
278	8.57347	2.8689429	0.5959	0.5926	6.882989	26.60781
279	8.57357	2.8636736	0.5532	0.5502	6.885354	26.55389
280	8.48691	2.8607161	0.5655	0.5624	6.897531	26.58878
281	8.36022	2.8619696	0.6082	0.6048	6.912849	26.69729
282	8.28099	2.8691188	0.6600	0.6563	6.919531	26.83107
283	8.22477	2.8730543	0.6996	0.6958	6.924791	26.91460
284	8.27841	2.8739379	0.7027	0.6988	6.917645	26.88270
285	8.40108	2.8707416	0.6693	0.6656	6.903723	26.75644
286	8.49828	2.8630479	0.6268	0.6233	6.895050	26.60407
287	8.53642	2.8595946	0.6298	0.6264	6.891842	26.54005
288	8.45711	2.8591005	0.6663	0.6627	6.901999	26.59463
289	8.33288	2.8684020	0.6940	0.6901	6.913343	26.78417
290	8.26978	2.8698293	0.6909	0.6871	6.920614	26.84693
291	8.34534	2.8687182	0.6666	0.6630	6.911634	26.77797
292	8.45097	2.8619390	0.6332	0.6297	6.901478	26.62837
293	8.51446	2.8615984	0.6121	0.6087	6.893682	26.57706
294	8.49262	2.8591836	0.6121	0.6087	6.897511	26.56877
295	8.37236	2.8629059	0.6213	0.6178	6.910896	26.69771
296	8.28013	2.8667253	0.6335	0.6300	6.920736	26.80707
297	8.26753	2.8668090	0.6488	0.6452	6.922283	26.81752
298	8.34856	2.8619996	0.6793	0.6756	6.914301	26.70641
299	8.40904	2.8593275	0.7036	0.6998	6.907926	26.63320
300	8.43449	2.8629949	0.7069	0.7030	6.903064	26.65161
301	8.44359	2.8657809	0.6795	0.6758	6.900657	26.67332
302	8.46390	2.8632749	0.6340	0.6305	6.899252	26.63231
303	8.49122	2.8594877	0.6188	0.6154	6.897549	26.57293
304	8.46352	2.8581049	0.6401	0.6366	6.901648	26.57960
305	8.37183	2.8624526	0.6585	0.6549	6.911171	26.69345
306	8.30008	2.8652691	0.6556	0.6520	6.918896	26.77687
307	8.31446	2.8646425	0.6434	0.6399	6.917375	26.75949
308	8.38833	2.8602936	0.6434	0.6399	6.910084	26.65878
309	8.43293	2.8579084	0.6404	0.6369	6.905573	26.60063
310	8.44106	2.8601500	0.6284	0.6250	6.903533	26.61750
311	8.42949	2.8621419	0.6376	0.6341	6.904079	26.64666
312	8.41625	2.8624522	0.6559	0.6523	6.905598	26.65984
313	8.41291	2.8619692	0.6834	0.6796	6.906237	26.65739
314	8.42045	2.8632753	0.6864	0.6827	6.904697	26.66511
315	8.43110	2.8636212	0.6653	0.6616	6.903203	26.66061
316	8.44413	2.8613128	0.6380	0.6344	6.902620	26.62711
317	8.45765	2.8576817	0.6289	0.6255	6.902576	26.57969
318	8.40608	2.8541899	0.6471	0.6436	6.910638	26.58272
319	8.29134	2.8608074	0.6625	0.6589	6.922041	26.73756
320	8.22199	2.8636232	0.6625	0.6589	6.929480	26.81937
321	8.24727	2.8618872	0.6505	0.6469	6.927093	26.78220
322	8.31355	2.8568783	0.6444	0.6409	6.921045	26.68026
323	8.34851	2.8556384	0.6386	0.6350	6.917214	26.64106
324	8.35082	2.8569972	0.6263	0.6228	6.916303	26.65328
325	8.34319	2.8552392	0.6294	0.6260	6.918066	26.64098
326	8.31038	2.8531720	0.6448	0.6412	6.923142	26.64452
327	8.23763	2.8553236	0.6813	0.6776	6.931327	26.72183
328	8.18249	2.8602061	0.6997	0.6959	6.936036	26.81420
329	8.18452	2.8624842	0.7028	0.6989	6.934729	26.83619
330	8.27117	2.8614874	0.6847	0.6809	6.924267	26.75988
331	8.35028	2.8572535	0.6694	0.6658	6.916254	26.65631
332	8.38924	2.8544999	0.6575	0.6539	6.912612	26.59859
333	8.39731	2.8542495	0.6454	0.6418	6.911712	26.58994
334	8.35468	2.8573369	0.6119	0.6085	6.915661	26.65386
335	8.31811	2.8581598	0.5784	0.5752	6.919883	26.69002
336	8.29423	2.8547867	0.5786	0.5754	6.924435	26.67339
337	8.28549	2.8487829	0.6425	0.6390	6.928292	26.61817
338	8.21064	2.8496589	0.7035	0.6996	6.937342	26.68388
339	8.12374	2.8578815	0.7340	0.7300	6.944532	26.83502
340	8.09256	2.8602069	0.7099	0.7060	6.947398	26.88296
341	8.18067	2.8565458	0.6793	0.6756	6.937953	26.77778
342	8.27820	2.8495749	0.6551	0.6515	6.928849	26.63183
343	8.32327	2.8494911	0.6400	0.6365	6.923204	26.59691
344	8.29016	2.8533151	0.6218	0.6183	6.925624	26.66131
345	8.26308	2.8564914	0.6157	0.6123	6.927580	26.71456
346	8.27284	2.8568310	0.6067	0.6034	6.926194	26.71066
347	8.31742	2.8525524	0.6098	0.6064	6.922539	26.63284
348	8.34598	2.8495147	0.6343	0.6308	6.920332	26.58002
349	8.30244	2.8496044	0.6891	0.6853	6.925778	26.61379
350	8.22365	2.8550735	0.7410	0.7369	6.933207	26.72985
351	8.18602	2.8574279	0.7593	0.7552	6.936872	26.78278
352	8.24047	2.8574274	0.7351	0.7310	6.930002	26.74135
353	8.31516	2.8564313	0.6742	0.6705	6.921048	26.67443
354	8.36274	2.8523792	0.5891	0.5859	6.916912	26.59682
355	8.38387	2.8499669	0.5251	0.5223	6.915354	26.55615
356	8.35613	2.8386433	0.5040	0.5012	6.924020	26.46073
357	8.21851	2.8272840	0.5681	0.5650	6.946649	26.44726
358	8.08274	2.8265313	0.6533	0.6497	6.964260	26.54186
359	7.99649	2.8405675	0.7143	0.7103	6.968716	26.75282
360	7.94195	2.8522402	0.7509	0.7468	6.970208	26.91586
361	7.97041	2.8539377	0.7449	0.7408	6.965798	26.91163
362	8.07927	2.8465762	0.7175	0.7135	6.955402	26.75194
363	8.15655	2.8387344	0.6750	0.6713	6.949229	26.61212
364	8.18559	2.8392098	0.6629	0.6593	6.945327	26.59504
365	8.18324	2.8448790	0.6569	0.6533	6.943010	26.65535
366	8.17265	2.8499986	0.6448	0.6412	6.941988	26.71627
367	8.18516	2.8508799	0.6266	0.6231	6.939998	26.71586
368	8.22847	2.8459260	0.6024	0.5990	6.936805	26.63190
369	8.25702	2.8429623	0.5994	0.5961	6.934559	26.57975
370	8.24813	2.8423140	0.6299	0.6264	6.935982	26.57978
371	8.18147	2.8460098	0.6665	0.6628	6.942712	26.66836
372	8.13566	2.8484151	0.7000	0.6962	6.947402	26.72802
373	8.12962	2.8494929	0.7275	0.7235	6.947669	26.74375
374	8.17677	2.8492364	0.7185	0.7145	6.941820	26.70523
375	8.22317	2.8466641	0.6851	0.6813	6.937137	26.64349
376	8.25166	2.8446820	0.6303	0.6269	6.934446	26.60151
377	8.25890	2.8427660	0.5788	0.5756	6.934411	26.57632
378	8.23923	2.8391796	0.5757	0.5725	6.938547	26.55422
379	8.14175	2.8301530	0.6214	0.6180	6.955074	26.53470
380	8.02520	2.8304035	0.6946	0.6908	6.969792	26.62555
381	7.95238	2.8430782	0.7464	0.7423	6.973162	26.81261
382	7.91527	2.8485303	0.7526	0.7485	6.975339	26.89778
383	7.97925	2.8482737	0.7162	0.7122	6.967317	26.84602
384	8.08311	2.8397460	0.6524	0.6488	6.958082	26.67832
385	8.15436	2.8375750	0.6189	0.6155	6.950041	26.60182
386	8.16805	2.8398284	0.6037	0.6004	6.947264	26.61473
387	8.13881	2.8440642	0.5978	0.5945	6.949013	26.68068
388	8.10804	2.8461533	0.6100	0.6067	6.951947	26.72568
389	8.12561	2.8456472	0.6253	0.6219	6.949954	26.70707
390	8.16692	2.8424813	0.6558	0.6522	6.946183	26.64296
391	8.19651	2.8413508	0.6834	0.6796	6.942958	26.60887
392	8.20555	2.8415529	0.6987	0.6949	6.941720	26.60410
393	8.19817	2.8428499	0.7017	0.6978	6.942057	26.62307
394	8.19726	2.8422252	0.7109	0.7070	6.942460	26.61731
395	8.19426	2.8418326	0.7140	0.7101	6.943021	26.61553
396	8.18757	2.8438674	0.7020	0.6982	6.942929	26.64160
397	8.18725	2.8448254	0.6686	0.6649	6.942527	26.65175
398	8.19736	2.8428201	0.6382	0.6347	6.942171	26.62340
399	8.20855	2.8407915	0.6171	0.6137	6.941690	26.59401
400	8.20052	2.8411842	0.6140	0.6107	6.942525	26.60414
401	8.17249	2.8431892	0.6111	0.6077	6.945151	26.64607
402	8.14763	2.8437785	0.6082	0.6049	6.948028	26.67103
403	8.14036	2.8422555	0.6417	0.6382	6.949654	26.66079
404	8.14570	2.8407921	0.6844	0.6806	6.949654	26.64160
405	8.13715	2.8419462	0.7119	0.7080	6.950205	26.66000
406	8.12860	2.8442607	0.7120	0.7081	6.950218	26.69042
407	8.13197	2.8452485	0.7182	0.7142	6.949334	26.69808
408	8.16318	2.8428799	0.7121	0.7082	6.946474	26.64990
409	8.19244	2.8418326	0.7032	0.6993	6.943251	26.61691
410	8.20298	2.8432127	0.6788	0.6750	6.941280	26.62318
411	8.20512	2.8437541	0.6302	0.6267	6.940758	26.62716
412	8.20336	2.8418920	0.5907	0.5874	6.941839	26.60930
413	8.20164	2.8391561	0.5999	0.5966	6.943317	26.58237
414	8.16692	2.8371825	0.6275	0.6240	6.948629	26.58825
415	8.08290	2.8395497	0.6548	0.6513	6.958200	26.67645
416	8.02472	2.8432441	0.6672	0.6635	6.963877	26.75905
417	8.00256	2.8448271	0.6732	0.6695	6.965958	26.79240
418	8.06103	2.8402814	0.6855	0.6818	6.960640	26.70066
419	8.10318	2.8359704	0.7069	0.7030	6.957283	26.62399
420	8.10313	2.8385624	0.7223	0.7183	6.956089	26.65084
421	8.08621	2.8427081	0.7011	0.6973	6.956315	26.70661
422	8.09208	2.8428806	0.6799	0.6761	6.955490	26.70394
423	8.13448	2.8388416	0.6739	0.6702	6.951979	26.62995
424	8.16238	2.8372955	0.6708	0.6671	6.949154	26.59284
425	8.15602	2.8390971	0.6770	0.6733	6.949129	26.61627
426	8.14255	2.8409290	0.6498	0.6462	6.949990	26.64542
427	8.13480	2.8416071	0.6042	0.6008	6.950658	26.65832
428	8.15019	2.8385084	0.5617	0.5586	6.950138	26.61465
429	8.16008	2.8345077	0.5496	0.5466	6.950731	26.56584
430	8.09336	2.8266143	0.5952	0.5920	6.962868	26.53471
431	7.99080	2.8257722	0.6653	0.6617	6.976339	26.60368
432	7.92085	2.8337790	0.7386	0.7345	6.981532	26.74008
433	7.87676	2.8392127	0.7934	0.7890	6.984617	26.83035
434	7.86461	2.8406223	0.8117	0.8073	6.985509	26.85436
435	7.91910	2.8406812	0.7875	0.7832	6.978526	26.81318
436	7.98297	2.8397172	0.7237	0.7197	6.970834	26.75431
437	8.02792	2.8336651	0.6294	0.6259	6.967927	26.65732
438	8.05138	2.8288056	0.5655	0.5624	6.967198	26.58919
439	8.02004	2.8255226	0.5535	0.5505	6.972721	26.57895
440	7.94599	2.8275952	0.5718	0.5687	6.981209	26.65670
441	7.89800	2.8337792	0.6023	0.5990	6.984448	26.75760
442	7.86004	2.8382257	0.6389	0.6354	6.987214	26.83297
443	7.88674	2.8379460	0.6481	0.6446	6.983934	26.80957
444	7.95993	2.8308853	0.6696	0.6659	6.977893	26.68022
445	8.00278	2.8279035	0.7092	0.7053	6.973817	26.61667
446	7.99298	2.8300415	0.7580	0.7538	6.974071	26.64627
447	7.96647	2.8353832	0.7884	0.7841	6.974960	26.72189
448	7.95621	2.8378028	0.7886	0.7843	6.975139	26.75486
449	7.99921	2.8368749	0.7399	0.7359	6.970091	26.71242
450	8.05884	2.8333856	0.6578	0.6542	6.964121	26.63091
451	8.09672	2.8318345	0.5880	0.5848	6.960019	26.58616
452	8.09880	2.8318344	0.5576	0.5546	6.959754	26.58459
453	8.03624	2.8321736	0.5669	0.5638	6.967561	26.63556
454	7.98606	2.8341409	0.5760	0.5729	6.973039	26.69414
455	7.95302	2.8350148	0.6035	0.6001	6.976846	26.72841
456	7.93999	2.8357460	0.6584	0.6548	6.978167	26.74593
457	7.95972	2.8347354	0.7012	0.6973	6.976123	26.72035
458	7.98302	2.8335824	0.7529	0.7488	6.973689	26.69059
459	8.00214	2.8356920	0.7621	0.7579	6.970270	26.69791
460	8.01854	2.8363694	0.7440	0.7400	6.967864	26.69244
461	8.04098	2.8342533	0.7044	0.7005	6.965992	26.65345
462	8.06599	2.8320071	0.6620	0.6584	6.963851	26.61121
463	8.06673	2.8313595	0.6285	0.6251	6.964056	26.60396
464	8.05841	2.8316388	0.6134	0.6100	6.964986	26.61317
465	8.05063	2.8317814	0.6196	0.6162	6.965911	26.62055
466	8.03341	2.8334690	0.6318	0.6284	6.967319	26.65111
467	8.01929	2.8344258	0.6624	0.6588	6.968673	26.67176
468	8.01364	2.8351569	0.6655	0.6618	6.969052	26.68363
469	8.02782	2.8349606	0.6717	0.6680	6.967338	26.67081
470	8.04562	2.8333263	0.6810	0.6772	6.965832	26.64033
471	8.05713	2.8325418	0.6810	0.6772	6.964730	26.62346
472	8.05969	2.8330469	0.6873	0.6835	6.964170	26.62675
473	8.06236	2.8338074	0.6872	0.6834	6.963477	26.63260
474	8.06273	2.8336945	0.6843	0.6806	6.963482	26.63115
475	8.06012	2.8332073	0.6784	0.6746	6.964041	26.62809
476	8.05729	2.8332727	0.6632	0.6595	6.964370	26.63092
477	8.05537	2.8331301	0.6542	0.6506	6.964680	26.63090
478	8.05351	2.8315557	0.6726	0.6689	6.965650	26.61601
479	8.04428	2.8311043	0.7000	0.6962	6.967035	26.61832
480	8.02856	2.8337186	0.7153	0.7114	6.967822	26.65735
481	8.01663	2.8354957	0.6880	0.6843	6.968514	26.68486
482	8.04423	2.8334986	0.6424	0.6389	6.965928	26.64319
483	8.07202	2.8308545	0.6304	0.6269	6.963619	26.59473
484	8.07116	2.8306288	0.6304	0.6269	6.963832	26.59304
485	8.03965	2.8329044	0.6428	0.6393	6.966788	26.64051
486	8.01178	2.8338911	0.6519	0.6483	6.969878	26.67193
487	8.01023	2.8310214	0.7159	0.7120	6.971413	26.64333
488	8.01444	2.8283013	0.8012	0.7968	6.972145	26.61189
489	7.97909	2.8271497	0.8896	0.8848	6.977195	26.62678
490	7.92728	2.8268949	0.9840	0.9786	6.983936	26.66352
491	7.88520	2.8266460	1.1028	1.0967	6.989438	26.69298
492	7.84757	2.8278813	1.2094	1.2028	6.993678	26.73455
493	7.83076	2.8274303	1.3282	1.3209	6.996047	26.74267
494	7.81332	2.8250202	1.4653	1.4572	6.999420	26.73084
495	7.78545	2.8230858	1.5902	1.5815	7.003911	26.73196
496	7.75813	2.8225520	1.7150	1.7056	7.007676	26.74727
497	7.73823	2.8221606	1.8430	1.8328	7.010421	26.75839
498	7.72294	2.8212649	1.9649	1.9541	7.012814	26.76071
499	7.70803	2.8187797	2.0897	2.0782	7.015912	26.74612
500	7.69075	2.8154238	2.2329	2.2206	7.019732	26.72424
501	7.67437	2.8128576	2.3882	2.3750	7.023065	26.70989
502	7.66021	2.8086751	2.5647	2.5506	7.026881	26.67691
503	7.64913	2.8081481	2.7627	2.7475	7.028568	26.67981
504	7.64253	2.8070822	2.9516	2.9353	7.029931	26.67363
505	7.63657	2.8064488	3.1433	3.1260	7.031007	26.67149
506	7.63081	2.8060877	3.3321	3.3138	7.031926	26.67204
507	7.62533	2.8056674	3.5148	3.4954	7.032839	26.67178
508	7.62063	2.8052531	3.7189	3.6984	7.033648	26.67095
509	7.61641	2.8053064	3.9077	3.8862	7.034172	26.67467
510	7.61129	2.8060881	4.1148	4.0921	7.034466	26.68670
511	7.60718	2.8064493	4.3065	4.2828	7.034830	26.69356
512	7.60418	2.8063369	4.5045	4.4797	7.035276	26.69461
513	7.60091	2.8063903	4.6933	4.6675	7.035677	26.69760
514	7.59727	2.8068641	4.8913	4.8643	7.035926	26.70528
515	7.59215	2.8079064	5.0922	5.0641	7.036095	26.72005
516	7.58609	2.8099855	5.2871	5.2580	7.035892	26.74642
517	7.57761	2.8142224	5.4973	5.4670	7.034973	26.79730
518	7.55827	2.8261456	5.7043	5.6729	7.031785	26.93729
519	7.52742	2.8454281	5.9113	5.8788	7.026554	27.16388
520	7.48239	2.8735764	6.1093	6.0756	7.018871	27.49574
521	7.43757	2.9012461	6.3193	6.2845	7.011339	27.82361
522	7.41048	2.9199415	6.5172	6.4813	7.005816	28.04323
523	7.39962	2.9363569	6.7366	6.6994	6.999312	28.22595
524	7.38997	2.9447072	6.9710	6.9326	6.996526	28.32231
525	7.37523	2.9488496	7.1871	7.1475	6.996403	28.37825
526	7.35951	2.9522038	7.4094	7.3686	6.996782	28.42667
527	7.34792	2.9562354	7.6287	7.5866	6.996309	28.47894
528	7.34289	2.9603958	7.8509	7.8076	6.994944	28.52722
529	7.34536	2.9718314	8.0701	8.0257	6.989130	28.64674
530	7.36008	2.9847736	8.3047	8.2589	6.981054	28.77216
531	7.38000	2.9952736	8.5329	8.4858	6.973512	28.86724
532	7.40534	3.0022831	8.7491	8.7009	6.966982	28.92061
533	7.43285	3.0072633	8.9714	8.9219	6.961164	28.95053
534	7.45895	3.0134078	9.1845	9.1339	6.954973	28.99395
535	7.48413	3.0151771	9.4161	9.3642	6.950998	28.99162
536	7.50027	3.0160041	9.6414	9.5882	6.948600	28.98683
537	7.50558	3.0153899	9.8606	9.8062	6.948236	28.97579
538	7.50064	3.0149521	10.0829	10.0272	6.949064	28.97517
539	7.49117	3.0141861	10.3204	10.2635	6.950612	28.97484
540	7.47682	3.0133411	10.5519	10.4937	6.952806	28.97774
541	7.45916	3.0127516	10.7984	10.7388	6.955292	28.98612
542	7.44088	3.0116272	11.0450	10.9840	6.958112	28.98933
543	7.41720	3.0111898	11.2977	11.2354	6.961279	29.00436
544	7.39721	3.0155678	11.5475	11.4837	6.961678	29.06759
545	7.39322	3.0187797	11.7636	11.6987	6.960638	29.10504
546	7.40188	3.0196133	11.9738	11.9077	6.959164	29.10656
547	7.41211	3.0209825	12.1747	12.1075	6.957237	29.11246
548	7.42177	3.0223884	12.3818	12.3135	6.955365	29.11922
549	7.43122	3.0232710	12.5981	12.5285	6.953771	29.12059
550	7.43925	3.0239589	12.8263	12.7555	6.952447	29.12107
551	7.44566	3.0249270	13.0639	12.9918	6.951192	29.12589
552	7.45060	3.0255055	13.2953	13.2218	6.950306	29.12780
553	7.45438	3.0259866	13.5298	13.4551	6.949611	29.12964
554	7.45753	3.0290016	13.7704	13.6943	6.947783	29.15895
555	7.46431	3.0297997	14.0079	13.9305	6.946564	29.16164
556	7.46983	3.0313535	14.2513	14.1726	6.945142	29.17342
557	7.47409	3.0337426	14.4797	14.3996	6.943477	29.19514
558	7.48181	3.0353459	14.7112	14.6299	6.941758	29.20558
559	7.49186	3.0370166	14.9335	14.8509	6.939721	29.21480
560	7.50159	3.0373032	15.1558	15.0720	6.938384	29.20957
561	7.50779	3.0375654	15.3627	15.2778	6.937495	29.20704
562	7.51027	3.0382241	15.5820	15.4959	6.936879	29.21187
563	7.50953	3.0391147	15.8103	15.7229	6.936550	29.22185
564	7.50564	3.0403531	16.0418	15.9531	6.936446	29.23818
565	7.50064	3.0421531	16.2672	16.1772	6.936211	29.26142
566	7.49775	3.0441915	16.4956	16.4043	6.935601	29.28542
567	7.49638	3.0449545	16.7239	16.6313	6.935410	29.29459
568	7.49570	3.0468166	16.9463	16.8525	6.934611	29.31486
569	7.49648	3.0482149	17.1746	17.0796	6.933852	29.32896
570	7.49864	3.0499921	17.4121	17.3157	6.932742	29.34593
571	7.50206	3.0534683	17.6740	17.5761	6.930669	29.37989
572	7.50790	3.0563102	17.9085	17.8093	6.928599	29.40506
573	7.51374	3.0576673	18.1248	18.0244	6.927237	29.41445
574	7.51695	3.0583338	18.3408	18.2392	6.926528	29.41872
575	7.51500	3.0596669	18.5751	18.4723	6.926137	29.43444
576	7.51232	3.0612693	18.8007	18.6965	6.925709	29.45366
577	7.50953	3.0608902	19.0319	18.9265	6.926238	29.45189
578	7.50306	3.0600463	19.2878	19.1809	6.927442	29.44829
579	7.49233	3.0593494	19.5285	19.4203	6.929101	29.44987
580	7.47924	3.0582184	19.7842	19.6746	6.931260	29.44883
581	7.46368	3.0596189	20.0277	19.9167	6.932515	29.47684
582	7.45522	3.0629769	20.2684	20.1561	6.931959	29.51968
583	7.45774	3.0638152	20.5178	20.4041	6.931252	29.52635
584	7.46247	3.0642006	20.7585	20.6434	6.930490	29.52633
585	7.46662	3.0647085	20.9930	20.8766	6.929741	29.52811
586	7.47051	3.0690542	21.2153	21.0976	6.927192	29.57098
587	7.48197	3.0753503	21.4528	21.3338	6.922784	29.62815
588	7.50017	3.0778688	21.6873	21.5670	6.919353	29.63933
589	7.51568	3.0790333	21.9217	21.8001	6.916898	29.63838
590	7.52721	3.0805535	22.1714	22.0484	6.914766	29.64462
591	7.53547	3.0812218	22.4150	22.2906	6.913440	29.64457
592	7.54105	3.0838281	22.6829	22.5570	6.911522	29.66741
593	7.54642	3.0859874	22.9295	22.8023	6.909843	29.68568
594	7.55380	3.0867236	23.1822	23.0536	6.908596	29.68710
595	7.56043	3.0897920	23.4167	23.2868	6.906332	29.71395
596	7.56728	3.0907128	23.6786	23.5472	6.905062	29.71777
597	7.57292	3.0918853	23.9131	23.7803	6.903821	29.72532
598	7.57777	3.0926160	24.1566	24.0225	6.902887	29.72883
599	7.58161	3.0945626	24.3942	24.2588	6.901499	29.74613
600	7.58541	3.0948820	24.6316	24.4948	6.900889	29.74617
601	7.58804	3.0953120	24.8874	24.7492	6.900368	29.74838
602	7.58957	3.0965037	25.1341	24.9945	6.899621	29.75963
603	7.58968	3.0991764	25.3898	25.2488	6.898347	29.78783
604	7.58789	3.1014935	25.6334	25.4910	6.897472	29.81388
605	7.58509	3.1044199	25.8741	25.7303	6.896431	29.84728
606	7.58188	3.1084670	26.1176	25.9724	6.894909	29.89296
607	7.57845	3.1107128	26.3733	26.2268	6.894267	29.91968
608	7.57508	3.1156804	26.6170	26.4691	6.892327	29.97532
609	7.57113	3.1221729	26.8727	26.7234	6.889735	30.04770
610	7.56665	3.1239110	27.1163	26.9656	6.889459	30.06997
611	7.56286	3.1248480	27.3661	27.2139	6.889480	30.08312
612	7.56080	3.1252919	27.6157	27.4621	6.889524	30.08951
613	7.56001	3.1257667	27.8683	27.7133	6.889400	30.09514
614	7.55896	3.1292137	28.1272	27.9707	6.887898	30.13265
615	7.55580	3.1332360	28.3891	28.2312	6.886378	30.17812
616	7.54948	3.1368714	28.6389	28.4796	6.885424	30.22224
617	7.54205	3.1386928	28.8733	28.7127	6.885464	30.24801
618	7.53532	3.1408605	29.1228	28.9608	6.885256	30.27688
619	7.52852	3.1440173	29.3665	29.2031	6.884583	30.31636
620	7.52058	3.1453336	29.6162	29.4514	6.884925	30.33723
621	7.51316	3.1466810	29.8689	29.7027	6.885187	30.35798
622	7.50695	3.1473981	30.1186	29.9510	6.885602	30.37095
623	7.50222	3.1480535	30.3653	30.1962	6.885868	30.38198
624	7.49869	3.1497970	30.6180	30.4475	6.885470	30.40357
625	7.49575	3.1515656	30.8646	30.6927	6.884990	30.42493
626	7.49259	3.1523016	31.1144	30.9411	6.885026	30.43544
627	7.49044	3.1538419	31.3701	31.1954	6.884559	30.45367
628	7.49054	3.1543245	31.6197	31.4436	6.884322	30.45863
629	7.49159	3.1545967	31.8754	31.6979	6.884070	30.46050
630	7.49275	3.1555558	32.1252	31.9462	6.883479	30.46962
631	7.49317	3.1563602	32.3718	32.1914	6.883051	30.47774
632	7.49312	3.1570595	32.6246	32.4429	6.882729	30.48514
633	7.49286	3.1575423	32.8834	32.7002	6.882536	30.49042
634	7.49170	3.1576600	33.1392	32.9545	6.882625	30.49258
635	7.48886	3.1574806	33.4132	33.2270	6.883059	30.49303
636	7.48260	3.1574993	33.6720	33.4843	6.883811	30.49861
637	7.47445	3.1574809	33.9247	33.7356	6.884809	30.50546
638	7.46636	3.1574501	34.1743	33.9838	6.885807	30.51214
639	7.46090	3.1574193	34.4333	34.2413	6.886487	30.51650
640	7.45722	3.1573885	34.6827	34.4893	6.886951	30.51929
641	7.45422	3.1575619	34.9417	34.7468	6.887235	30.52367
642	7.45202	3.1581438	35.2006	35.0043	6.887230	30.53172
643	7.45044	3.1589237	35.4623	35.2644	6.887054	30.54133
644	7.44887	3.1594066	35.7303	35.5309	6.887019	30.54777
645	7.44676	3.1607315	35.9861	35.7853	6.886646	30.56368
646	7.44345	3.1620752	36.2509	36.0486	6.886411	30.58085
647	7.44041	3.1634686	36.5128	36.3090	6.886119	30.59834
648	7.43857	3.1645526	36.7657	36.5604	6.885829	30.61145
649	7.43742	3.1653393	37.0213	36.8146	6.885599	30.62078
650	7.43626	3.1656987	37.2679	37.0598	6.885572	30.62553
651	7.43484	3.1669936	37.5207	37.3111	6.885130	30.64054
652	7.43258	3.1674832	37.7673	37.5564	6.885174	30.64766
653	7.43033	3.1681401	38.0353	37.8229	6.885138	30.65657
654	7.42907	3.1688095	38.2911	38.0772	6.884976	30.66474
655	7.42828	3.1695904	38.5590	38.3436	6.884704	30.67368
656	7.42702	3.1699810	38.8697	38.6525	6.884675	30.67884
657	7.42592	3.1707001	39.1589	38.9401	6.884471	30.68739
658	7.42424	3.1714316	39.4086	39.1884	6.884330	30.69660
659	7.42082	3.1719463	39.6856	39.4638	6.884501	30.70501
660	7.41531	3.1741227	39.9476	39.7243	6.884132	30.73309
661	7.40555	3.1751833	40.2002	39.9755	6.884807	30.75300
662	7.39459	3.1764860	40.4743	40.2480	6.885512	30.77658
663	7.38472	3.1767281	40.7363	40.5085	6.886591	30.78781
664	7.37812	3.1769578	40.9859	40.7567	6.887283	30.79603
665	7.37345	3.1797250	41.2507	41.0200	6.886527	30.82976
666	7.36480	3.1817855	41.5034	41.2712	6.886588	30.85946
667	7.35075	3.1820589	41.7592	41.5256	6.888155	30.87479
668	7.33781	3.1826674	42.0120	41.7770	6.889429	30.89275
669	7.32660	3.1837601	42.2738	42.0372	6.890261	30.91438
670	7.31608	3.1841204	42.5448	42.3067	6.891363	30.92753
671	7.30765	3.1842510	42.8159	42.5763	6.892322	30.93634
672	7.30179	3.1843939	43.0747	42.8336	6.892966	30.94300
673	7.29723	3.1844251	43.3487	43.1060	6.893505	30.94729
674	7.29409	3.1845494	43.6136	43.3694	6.893830	30.95131
675	7.29106	3.1846054	43.8876	43.6419	6.894174	30.95451
676	7.28787	3.1849097	44.1616	43.9143	6.894419	30.96051
677	7.28347	3.1865182	44.4297	44.1808	6.894181	30.98163
678	7.27505	3.1889655	44.6945	44.4442	6.894025	31.01540
679	7.26302	3.1897733	44.9473	44.6955	6.895092	31.03478
680	7.25345	3.1898667	45.2000	44.9467	6.896206	31.04425
681	7.24739	3.1901713	45.4466	45.1920	6.896796	31.05287
682	7.24316	3.1905318	45.6871	45.4311	6.897138	31.06044
683	7.24012	3.1908674	45.9399	45.6825	6.897347	31.06667
684	7.23803	3.1912341	46.1926	45.9337	6.897427	31.07239
685	7.23626	3.1915076	46.4544	46.1940	6.897515	31.07681
686	7.23448	3.1916568	46.7162	46.4543	6.897663	31.07990
687	7.23302	3.1919490	46.9905	46.7270	6.897704	31.08424
688	7.23197	3.1922660	47.2675	47.0025	6.897683	31.08847
689	7.23108	3.1923594	47.5414	47.2748	6.897750	31.09015
690	7.23040	3.1927261	47.8187	47.5505	6.897661	31.09459
691	7.23004	3.1927573	48.0865	47.8168	6.897696	31.09514
692	7.22967	3.1928444	48.3422	48.0710	6.897703	31.09629
693	7.22957	3.1929066	48.5981	48.3255	6.897691	31.09694
694	7.22936	3.1930621	48.8538	48.5796	6.897646	31.09869
695	7.22905	3.1932362	49.1097	48.8341	6.897605	31.10073
696	7.22873	3.1933357	49.3562	49.0792	6.897600	31.10197
697	7.22821	3.1936093	49.6120	49.3335	6.897536	31.10528
698	7.22722	3.1939450	49.8769	49.5969	6.897500	31.10967
699	7.22570	3.1943118	50.1418	49.8603	6.897511	31.11487
700	7.22346	3.1945233	50.4188	50.1357	6.897685	31.11905
701	7.22126	3.1945856	50.6929	50.4082	6.897925	31.12157
702	7.21975	3.1945857	50.9639	50.6777	6.898113	31.12281
703	7.21902	3.1946417	51.2257	50.9380	6.898180	31.12396
704	7.21808	3.1947475	51.4906	51.2014	6.898248	31.12582
705	7.21750	3.1947973	51.7465	51.4558	6.898298	31.12676
706	7.21677	3.1950087	51.9901	51.6980	6.898289	31.12959
707	7.21562	3.1951021	52.2398	51.9462	6.898388	31.13152
708	7.21437	3.1951954	52.4986	52.2035	6.898499	31.13354
709	7.21343	3.1952514	52.7542	52.4577	6.898591	31.13487
710	7.21270	3.1952515	53.0130	52.7150	6.898684	31.13542
711	7.21228	3.1953138	53.2902	52.9906	6.898710	31.13634
712	7.21170	3.1954382	53.5734	53.2722	6.898725	31.13807
713	7.21092	3.1955316	53.8444	53.5417	6.898780	31.13966
714	7.21003	3.1955876	54.1275	53.8231	6.898866	31.14094
715	7.20925	3.1956810	54.4046	54.0986	6.898921	31.14252
716	7.20836	3.1957743	54.6785	54.3709	6.898988	31.14421
717	7.20768	3.1959547	54.9618	54.6526	6.898989	31.14664
718	7.20679	3.1959548	55.2479	54.9371	6.899102	31.14731
719	7.20606	3.1960792	55.5098	55.1975	6.899135	31.14919
720	7.20549	3.1962907	55.7779	55.4639	6.899108	31.15187
721	7.20486	3.1964152	56.0579	55.7423	6.899129	31.15365
722	7.20424	3.1964463	56.3532	56.0360	6.899195	31.15442
723	7.20377	3.1965521	56.6242	56.3054	6.899206	31.15586
724	7.20309	3.1966579	56.9195	56.5990	6.899243	31.15748
725	7.20246	3.1967824	57.2089	56.8867	6.899265	31.15925
726	7.20199	3.1967825	57.4890	57.1652	6.899327	31.15955
727	7.20168	3.1968385	57.7689	57.4435	6.899343	31.16031
728	7.20147	3.1968386	58.0401	57.7132	6.899374	31.16038
729	7.20147	3.1968698	58.3203	57.9917	6.899365	31.16059
730	7.20152	3.1969321	58.6004	58.2702	6.899334	31.16109
731	7.20136	3.1971436	58.8957	58.5638	6.899257	31.16337
732	7.20089	3.1972680	59.1880	58.8544	6.899259	31.16501
733	7.20042	3.1975853	59.4894	59.1541	6.899169	31.16872
734	7.19990	3.1984249	59.7908	59.4537	6.898833	31.17812
735	7.19917	3.1997995	60.0770	59.7382	6.898263	31.19348
736	7.19625	3.2051134	60.3693	60.0289	6.896056	31.25336
737	7.18680	3.2086932	60.6585	60.3164	6.895471	31.30044
738	7.17480	3.2108980	60.9356	60.5919	6.895856	31.33501
739	7.16259	3.2126174	61.2097	60.8644	6.896498	31.36455
740	7.15044	3.2134711	61.4837	61.1368	6.897553	31.38470
741	7.14048	3.2151288	61.7578	61.4093	6.897954	31.41156
742	7.12938	3.2189061	62.0348	61.6848	6.897466	31.46243
743	7.11286	3.2212758	62.3333	61.9815	6.898309	31.50302
744	7.09775	3.2233030	62.6225	62.2690	6.899148	31.53865
745	7.08682	3.2253057	62.9118	62.5566	6.899496	31.57023
746	7.07922	3.2279205	63.2071	62.8502	6.899146	31.60540
747	7.07193	3.2311292	63.5084	63.1498	6.898469	31.64675
748	7.06194	3.2331650	63.7916	63.4313	6.898685	31.67789
749	7.05158	3.2336898	64.0840	63.7220	6.899679	31.69297
750	7.04394	3.2353888	64.3639	64.0004	6.899776	31.71832
751	7.03952	3.2375880	64.6411	64.2759	6.899242	31.74615
752	7.03764	3.2383879	64.9121	64.5454	6.899084	31.75644
753	7.03676	3.2390379	65.1921	64.8238	6.898879	31.76419
754	7.03603	3.2405880	65.4692	65.0992	6.898218	31.78157
755	7.03406	3.2420133	65.7555	65.3839	6.897768	31.79875
756	7.03005	3.2430013	66.0418	65.6685	6.897773	31.81305
757	7.02652	3.2433453	66.3279	65.9530	6.898035	31.81992
758	7.02386	3.2436205	66.6110	66.2344	6.898225	31.82523
759	7.02210	3.2436831	66.8943	66.5160	6.898412	31.82741
760	7.02085	3.2437458	67.1896	66.8096	6.898537	31.82910
761	7.01981	3.2438709	67.4757	67.0941	6.898607	31.83129
762	7.01830	3.2443025	67.7589	67.3755	6.898583	31.83725
763	7.01290	3.2483056	68.0391	67.6541	6.897287	31.88565
764	6.99845	3.2499826	68.3131	67.9265	6.898206	31.91714
765	6.98427	3.2502332	68.5750	68.1870	6.899787	31.93289
766	6.97420	3.2503898	68.8459	68.4563	6.900923	31.94382
767	6.96708	3.2505777	69.1200	68.7287	6.901689	31.95233
768	6.96210	3.2506029	69.4122	69.0192	6.902280	31.95710
769	6.95893	3.2506343	69.7228	69.3281	6.902650	31.96024
770	6.95675	3.2507596	69.9910	69.5947	6.902856	31.96350
771	6.95530	3.2509161	70.2769	69.8789	6.902960	31.96642
772	6.95431	3.2511040	70.5692	70.1695	6.902992	31.96925
773	6.95333	3.2511353	70.8677	70.4663	6.903101	31.97037
774	6.95136	3.2511355	71.1537	70.7506	6.903343	31.97207
775	6.94876	3.2511982	71.4553	71.0505	6.903630	31.97502
776	6.94669	3.2511983	71.7446	71.3380	6.903885	31.97681
777	6.94503	3.2511671	72.0185	71.6104	6.904105	31.97789
778	6.94394	3.2511672	72.2866	71.8769	6.904241	31.97878
779	6.94316	3.2511986	72.5726	72.1612	6.904325	31.97971
780	6.94238	3.2511987	72.8407	72.4278	6.904424	31.98031
781	6.94155	3.2512613	73.1117	72.6971	6.904498	31.98164
782	6.94108	3.2512301	73.4040	72.9877	6.904575	31.98159
783	6.94062	3.2512615	73.6933	73.2753	6.904622	31.98223
784	6.94046	3.2514181	73.9855	73.5659	6.904570	31.98395
785	6.94087	3.2514182	74.2839	73.8625	6.904527	31.98343
786	6.94113	3.2515059	74.5823	74.1591	6.904459	31.98400
787	6.94186	3.2521005	74.8746	74.4498	6.904088	31.98967
788	6.94342	3.2524386	75.1516	74.7251	6.903742	31.99178
789	6.94300	3.2546798	75.4348	75.0067	6.902702	32.01646
790	6.93750	3.2548991	75.7059	75.2761	6.903259	32.02384
791	6.92417	3.2549619	75.9800	75.5487	6.904831	32.03681
792	6.91111	3.2549621	76.2417	75.8089	6.906402	32.04886
793	6.90312	3.2551000	76.5096	76.0752	6.907297	32.05768
794	6.89903	3.2545868	76.7806	76.3446	6.908045	32.05577
795	6.89302	3.2533411	77.0609	76.6232	6.909382	32.04764
796	6.87820	3.2513885	77.3438	76.9045	6.912123	32.04000
797	6.85256	3.2505503	77.6454	77.2043	6.915618	32.05461
798	6.82695	3.2499874	77.9376	77.4948	6.918979	32.07223
799	6.80677	3.2494309	78.2300	77.7855	6.921684	32.08484
800	6.79080	3.2491808	78.5163	78.0701	6.923735	32.09691
801	6.77917	3.2491185	78.8054	78.3576	6.925171	32.10696
802	6.77188	3.2490248	79.0733	78.6238	6.926099	32.11263
803	6.76640	3.2484994	79.3535	78.9024	6.927024	32.11187
804	6.75974	3.2487811	79.6488	79.1960	6.927693	32.12105
805	6.75241	3.2489940	79.9381	79.4835	6.928477	32.13011
806	6.74626	3.2490567	80.1939	79.7378	6.929192	32.13644
807	6.74012	3.2491507	80.4771	80.0194	6.929891	32.14309
808	6.73304	3.2492134	80.7572	80.2978	6.930718	32.15028
809	6.72783	3.2492761	81.0341	80.5732	6.931321	32.15572
810	6.72489	3.2494014	81.3295	80.8668	6.931620	32.15971
811	6.72349	3.2495266	81.6066	81.1422	6.931732	32.16226
812	6.72288	3.2496832	81.9019	81.4358	6.931735	32.16442
813	6.72231	3.2497458	82.1820	81.7143	6.931778	32.16551
814	6.72200	3.2497710	82.4654	81.9959	6.931809	32.16594
815	6.72184	3.2498649	82.7362	82.2652	6.931787	32.16699
816	6.72153	3.2498337	83.0042	82.5316	6.931846	32.16681
817	6.72009	3.2496836	83.2752	82.8010	6.932100	32.16639
818	6.71761	3.2494335	83.5490	83.0732	6.932528	32.16584
819	6.71441	3.2492459	83.8263	83.3488	6.933012	32.16666
820	6.71121	3.2492147	84.1064	83.6273	6.933419	32.16918
821	6.70884	3.2491523	84.3926	83.9118	6.933742	32.17059
822	6.70683	3.2490585	84.6697	84.1873	6.934037	32.17132
823	6.70482	3.2491525	84.9589	84.4747	6.934239	32.17410
824	6.70327	3.2490900	85.2423	84.7565	6.934462	32.17474
825	6.70188	3.2490275	85.5254	85.0379	6.934667	32.17522
826	6.70064	3.2489964	85.8114	85.3223	6.934838	32.17591
827	6.69971	3.2490277	86.0793	85.5886	6.934940	32.17700
828	6.69878	3.2488151	86.3565	85.8641	6.935163	32.17540
829	6.69651	3.2483460	86.6243	86.1303	6.935675	32.17226
830	6.69244	3.2483148	86.9015	86.4059	6.936187	32.17561
831	6.68929	3.2482837	87.1787	86.6814	6.936588	32.17809
832	6.68754	3.2483151	87.4465	86.9477	6.936790	32.17995
833	6.68651	3.2483152	87.7205	87.2200	6.936920	32.18079
834	6.68579	3.2481589	88.0067	87.5045	6.937090	32.17962
835	6.68424	3.2480776	88.2778	87.7741	6.937323	32.18005
836	6.68140	3.2480089	88.5549	88.0496	6.937705	32.18183
837	6.67893	3.2478839	88.8350	88.3279	6.938071	32.18265
838	6.67563	3.2473523	89.1120	88.6033	6.938739	32.17978
839	6.66970	3.2469208	89.4012	88.8908	6.939674	32.18047
840	6.66243	3.2467021	89.6903	89.1782	6.940666	32.18476
841	6.65599	3.2466710	89.9980	89.4841	6.941466	32.19032
842	6.65167	3.2467649	90.2751	89.7595	6.941948	32.19529
843	6.64682	3.2484729	90.5400	90.0229	6.941690	32.21849
844	6.64703	3.2494990	90.8046	90.2859	6.941161	32.22945
845	6.65043	3.2492175	91.0879	90.5676	6.940897	32.22302
846	6.65074	3.2488797	91.3681	90.8460	6.941033	32.21889
847	6.64847	3.2485045	91.6483	91.1245	6.941499	32.21676
848	6.64451	3.2476350	91.9345	91.4091	6.942416	32.21080
849	6.63771	3.2467657	92.2147	91.6876	6.943675	32.20751
850	6.62885	3.2450584	92.5038	91.9750	6.945599	32.19693
851	6.61665	3.2445333	92.7810	92.2505	6.947341	32.20250
852	6.60538	3.2458343	93.0701	92.5380	6.948063	32.22728
853	6.59992	3.2454655	93.3472	92.8134	6.948912	32.22823
854	6.59472	3.2451529	93.6303	93.0948	6.949702	32.22955
855	6.58948	3.2448466	93.9015	93.3644	6.950495	32.23099
856	6.58500	3.2444403	94.1815	93.6427	6.951245	32.23060
857	6.58017	3.2437589	94.4464	93.9061	6.952175	32.22753
858	6.57261	3.2431713	94.7204	94.1785	6.953389	32.22805
859	6.56268	3.2430464	94.9883	94.4447	6.954658	32.23590
860	6.55461	3.2430153	95.2563	94.7112	6.955657	32.24303
861	6.54865	3.2430780	95.5395	94.9927	6.956353	32.24921
862	6.54320	3.2431407	95.8227	95.2742	6.956988	32.25491
863	6.53781	3.2423343	96.1118	95.5615	6.958051	32.25097
864	6.52892	3.2416218	96.3949	95.8430	6.959490	32.25136
865	6.51834	3.2408782	96.6812	96.1276	6.961150	32.25301
866	6.50509	3.2403533	96.9644	96.4091	6.963026	32.25959
867	6.48923	3.2406036	97.2385	96.6815	6.964830	32.27720
868	6.47800	3.2408538	97.5065	96.9479	6.966075	32.29045
869	6.47158	3.2410665	97.7622	97.2021	6.966752	32.29874
870	6.46851	3.2411916	98.0423	97.4805	6.967069	32.30290
871	6.46707	3.2412855	98.2979	97.7346	6.967201	32.30518
872	6.46640	3.2415606	98.5783	98.0133	6.967150	32.30871
873	6.46630	3.2416858	98.8582	98.2915	6.967106	32.31006
874	6.46645	3.2417171	99.1384	98.5701	6.967078	32.31013
875	6.46584	3.2416859	99.4336	98.8636	6.967175	32.31022
876	6.46430	3.2417486	99.7107	99.1390	6.967336	32.31224
877	6.46245	3.2415611	100.0214	99.4478	6.967661	32.31177
878	6.45886	3.2417801	100.3077	99.7324	6.967993	32.31745
879	6.45471	3.2417489	100.5756	99.9987	6.968518	32.32091
880	6.45163	3.2412239	100.8436	100.2651	6.969161	32.31789
881	6.44574	3.2405428	101.1175	100.5373	6.970225	32.31581
882	6.43600	3.2406055	101.3916	100.8099	6.971383	32.32560
883	6.42780	3.2410682	101.6715	101.0880	6.972152	32.33834
884	6.42365	3.2417184	101.9488	101.3636	6.972336	32.34934
885	6.42319	3.2416560	102.2351	101.6483	6.972429	32.34895
886	6.42324	3.2417186	102.5029	101.9145	6.972398	32.34946
887	6.42334	3.2418437	102.7922	102.2021	6.972328	32.35061
888	6.42334	3.2419688	103.0814	102.4895	6.972272	32.35186
889	6.42334	3.2423690	103.3737	102.7800	6.972077	32.35614
890	6.42349	3.2424316	103.6537	103.0584	6.972033	32.35656
891	6.42314	3.2423067	103.9310	103.3340	6.972145	32.35538
892	6.42078	3.2418442	104.2079	103.6092	6.972670	32.35237
893	6.41509	3.2418443	104.4849	103.8846	6.973367	32.35763
894	6.40997	3.2421258	104.7590	104.1570	6.973854	32.36547
895	6.40746	3.2423385	105.0482	104.4445	6.974058	32.37007
896	6.40649	3.2423385	105.3133	104.7080	6.974182	32.37086
897	6.40613	3.2425887	105.5782	104.9713	6.974106	32.37384
898	6.40623	3.2432078	105.8732	105.2646	6.973788	32.38046
899	6.40638	3.2434579	106.1443	105.5340	6.973649	32.38295
900	6.40459	3.2428703	106.4124	105.8005	6.974169	32.37802
901	6.39799	3.2412576	106.6983	106.0847	6.975789	32.36631
902	6.38442	3.2408578	107.0000	106.3846	6.977647	32.37461
903	6.37157	3.2407955	107.2800	106.6630	6.979247	32.38598
904	6.36318	3.2407957	107.5571	106.9383	6.980274	32.39382
905	6.35786	3.2408583	107.8311	107.2107	6.980896	32.39944
906	6.35428	3.2407647	108.0931	107.4712	6.981385	32.40168
907	6.35203	3.2408585	108.3518	107.7282	6.981617	32.40474
908	6.35136	3.2422214	108.6137	107.9886	6.981016	32.42035
909	6.35438	3.2425590	108.8816	108.2549	6.980484	32.42109
910	6.35653	3.2410712	109.1344	108.5061	6.980979	32.40244
911	6.35111	3.2402963	109.4085	108.7786	6.982035	32.39888
912	6.34231	3.2392153	109.7006	109.0690	6.983659	32.39512
913	6.33142	3.2385968	110.0111	109.3776	6.985304	32.39847
914	6.31854	3.2384096	110.3126	109.6773	6.986975	32.40850
915	6.30806	3.2381348	110.6078	109.9706	6.988397	32.41527
916	6.30004	3.2379788	110.8760	110.2373	6.989460	32.42105
917	6.29335	3.2366794	111.1651	110.5247	6.990940	32.41286
918	6.28216	3.2356613	111.4422	110.8001	6.992826	32.41207
919	6.26751	3.2353242	111.7041	111.0604	6.994791	32.42215
920	6.25541	3.2350433	111.9781	111.3327	6.996416	32.43042
921	6.24643	3.2348561	112.2552	111.6081	6.997614	32.43677
922	6.23934	3.2345502	112.5170	111.8684	6.998642	32.44000
923	6.23118	3.2342381	112.8062	112.1559	6.999804	32.44418
924	6.22343	3.2341820	113.0773	112.4253	7.000785	32.45082
925	6.21797	3.2340573	113.3573	112.7037	7.001522	32.45450
926	6.21359	3.2339637	113.6435	112.9881	7.002112	32.45751
927	6.21012	3.2339951	113.9329	113.2757	7.002526	32.46102
928	6.20762	3.2339327	114.2128	113.5540	7.002869	32.46258
929	6.20594	3.2338392	114.4960	113.8355	7.003129	32.46301
930	6.20411	3.2337143	114.7642	114.1020	7.003423	32.46324
931	6.20191	3.2330400	115.0411	114.3772	7.004040	32.45770
932	6.19534	3.2322034	115.3243	114.6587	7.005276	32.45453
933	6.18357	3.2311546	115.5982	114.9310	7.007257	32.45396
934	6.16788	3.2299187	115.8784	115.2095	7.009814	32.45504
935	6.14879	3.2297380	116.1526	115.4820	7.012251	32.47114
936	6.13428	3.2294573	116.4112	115.7391	7.014178	32.48175
937	6.12416	3.2294263	116.6791	116.0054	7.015441	32.49096
938	6.11800	3.2294264	116.9442	116.2688	7.016202	32.49672
939	6.11480	3.2293704	117.2061	116.5291	7.016629	32.49904
940	6.11282	3.2292769	117.4709	116.7923	7.016926	32.49976
941	6.11063	3.2290273	117.7570	117.0766	7.017328	32.49893
942	6.10722	3.2289026	118.0341	117.3521	7.017816	32.50067
943	6.10412	3.2286281	118.3112	117.6275	7.018343	32.50044
944	6.10005	3.2282911	118.6035	117.9180	7.019021	32.50044
945	6.09507	3.2281977	118.8866	118.1994	7.019687	32.50403
946	6.09110	3.2281666	119.1728	118.4839	7.020196	32.50734
947	6.08821	3.2280419	119.4528	118.7622	7.020622	32.50859
948	6.08587	3.2279796	119.7271	119.0348	7.020947	32.51000
949	6.08399	3.2279173	120.0315	119.3374	7.021216	32.51096
950	6.08236	3.2278612	120.3175	119.6216	7.021451	32.51175
951	6.08079	3.2277989	120.5613	119.8640	7.021682	32.51245
952	6.07946	3.2277366	120.8231	120.1242	7.021882	32.51289
953	6.07850	3.2276743	121.0909	120.3904	7.022038	32.51299
954	6.07723	3.2276120	121.3712	120.6689	7.022232	32.51338
955	6.07596	3.2276121	121.6695	120.9655	7.022395	32.51445
956	6.07474	3.2273937	121.9680	121.2622	7.022663	32.51304
957	6.07205	3.2269321	122.2571	121.5494	7.023237	32.51032
958	6.06696	3.2269634	122.5493	121.8399	7.023851	32.51540
959	6.06234	3.2265330	122.8417	122.1305	7.024647	32.51488
960	6.05691	3.2264083	123.1218	122.4089	7.025385	32.51856
961	6.05208	3.2262587	123.3868	122.6723	7.026060	32.52139
962	6.04827	3.2261652	123.6486	122.9324	7.026582	32.52387
963	6.04518	3.2261965	123.9136	123.1959	7.026953	32.52706
964	6.04340	3.2260406	124.1905	123.4711	7.027257	32.52689
965	6.04182	3.2259159	124.4586	123.7376	7.027521	32.52687
966	6.03923	3.2256727	124.7203	123.9977	7.027970	32.52651
967	6.03482	3.2251488	125.0066	124.2822	7.028788	32.52475
968	6.02827	3.2246872	125.2805	124.5545	7.029837	32.52574
969	6.02020	3.2241010	125.5637	124.8359	7.031137	32.52679
970	6.00924	3.2228100	125.8468	125.1173	7.033156	32.52273
971	5.99240	3.2217063	126.1086	125.3775	7.035804	32.52642
972	5.97181	3.2199232	126.3829	125.6501	7.039266	32.52609
973	5.94450	3.2184148	126.6629	125.9284	7.043419	32.53529
974	5.91447	3.2179538	126.9157	126.1796	7.047370	32.55887
975	5.89200	3.2178357	127.1957	126.4579	7.050213	32.57903
976	5.87769	3.2177736	127.4942	126.7546	7.052021	32.59198
977	5.86879	3.2177426	127.7557	127.0145	7.053144	32.60008
978	5.86368	3.2177739	128.0269	127.2841	7.053765	32.60522
979	5.86044	3.2177429	128.2949	127.5504	7.054187	32.60786
980	5.85807	3.2179238	128.5447	127.7987	7.054393	32.61206
981	5.85660	3.2179862	128.8124	128.0648	7.054548	32.61405
982	5.85594	3.2180175	129.0775	128.3282	7.054619	32.61490
983	5.85544	3.2180487	129.3483	128.5974	7.054671	32.61561
984	5.85503	3.2181423	129.6407	128.8880	7.054679	32.61691
985	5.85458	3.2181736	129.9359	129.1814	7.054726	32.61755
986	5.85352	3.2181425	130.2099	129.4538	7.054879	32.61810
987	5.85190	3.2179556	130.4903	129.7324	7.055183	32.61742
988	5.84962	3.2176503	130.7642	130.0046	7.055629	32.61605
989	5.84664	3.2172826	131.0476	130.2863	7.056195	32.61466
990	5.84295	3.2168527	131.3304	130.5673	7.056881	32.61325
991	5.83836	3.2167593	131.5861	130.8215	7.057504	32.61651
992	5.83477	3.2166659	131.8663	131.1000	7.058003	32.61879
993	5.83214	3.2165476	132.1130	131.3451	7.058395	32.61987
994	5.83057	3.2165165	132.3717	131.6023	7.058611	32.62091
995	5.82921	3.2164543	132.6307	131.8597	7.058818	32.62140
996	5.82815	3.2163484	132.8923	132.1198	7.059010	32.62110
997	5.82684	3.2162364	133.1544	132.3802	7.059236	32.62098
998	5.82552	3.2162676	133.4376	132.6616	7.059389	32.62246
999	5.82487	3.2161805	133.7055	132.9279	7.059522	32.62199
1000	5.82340	3.2165483	133.9948	133.2154	7.059519	32.62739
1001	5.82274	3.2174958	134.2780	133.4969	7.059114	32.63854
1002	5.82391	3.2179571	134.5642	133.7813	7.058737	32.64247
1003	5.82648	3.2192477	134.8411	134.0566	7.057754	32.65435
1004	5.83073	3.2193412	135.1060	134.3198	7.057187	32.65117
1005	5.83507	3.2218293	135.3648	134.5770	7.055363	32.67481
1006	5.84346	3.2223532	135.6205	134.8312	7.054060	32.67247
1007	5.85200	3.2238938	135.8702	135.0793	7.052211	32.68140
1008	5.85968	3.2246923	136.1290	135.3366	7.050854	32.68282
1009	5.86550	3.2249419	136.3817	135.5877	7.050013	32.67988
1010	5.86848	3.2246924	136.6465	135.8509	7.049780	32.67407
1011	5.86676	3.2229708	136.9269	136.1295	7.050891	32.65626
1012	5.85746	3.2213681	137.2009	136.4018	7.052877	32.64711
1013	5.84154	3.2205078	137.4750	136.6742	7.055297	32.65268
1014	5.82608	3.2219237	137.7580	136.9555	7.056480	32.68340
1015	5.82123	3.2242941	138.0197	137.2156	7.055854	32.71461
1016	5.82699	3.2248181	138.2968	137.4910	7.054876	32.71479
1017	5.83457	3.2257727	138.5496	137.7422	7.053450	32.71807
1018	5.84265	3.2258289	138.7993	137.9904	7.052428	32.71075
1019	5.84740	3.2250615	139.0582	138.2477	7.052246	32.69741
1020	5.84740	3.2253111	139.3717	138.5592	7.052123	32.70006
1021	5.84695	3.2256169	139.6638	138.8496	7.052027	32.70379
1022	5.84760	3.2258042	139.9409	139.1249	7.051855	32.70513
1023	5.84942	3.2270023	140.2151	139.3975	7.051016	32.71670
1024	5.85524	3.2290682	140.4891	139.6698	7.049233	32.73415
1025	5.86722	3.2320586	140.7601	139.9391	7.046212	32.75601
1026	5.88558	3.2329889	141.0311	140.2084	7.043474	32.74855
1027	5.90096	3.2331075	141.3113	140.4869	7.041525	32.73487
1028	5.90799	3.2331699	141.5822	140.7561	7.040633	32.72863
1029	5.90804	3.2331076	141.8685	141.0406	7.040665	32.72774
1030	5.90541	3.2332014	142.1515	141.3219	7.040947	32.73120
1031	5.90293	3.2337573	142.4226	141.5914	7.040971	32.73971
1032	5.90157	3.2341009	142.6965	141.8636	7.040968	32.74475
1033	5.90035	3.2341947	142.9611	142.1265	7.041075	32.74685
1034	5.89969	3.2353378	143.2233	142.3871	7.040570	32.76019
1035	5.90232	3.2400991	143.4942	142.6563	7.037791	32.81095
1036	5.91290	3.2408429	143.7592	142.9197	7.036112	32.80891
1037	5.92019	3.2408116	144.0270	143.1858	7.035239	32.80137
1038	5.92257	3.2407179	144.2920	143.4492	7.035001	32.79788
1039	5.92191	3.2406555	144.5661	143.7216	7.035120	32.79768
1040	5.92050	3.2406556	144.8399	143.9936	7.035300	32.79892
1041	5.91918	3.2406870	145.1173	144.2693	7.035452	32.80042
1042	5.91812	3.2406871	145.4092	144.5594	7.035589	32.80130
1043	5.91710	3.2406247	145.6866	144.8351	7.035752	32.80145
1044	5.91604	3.2405310	145.9788	145.1255	7.035938	32.80129
1045	5.91472	3.2404999	146.2435	145.3886	7.036122	32.80208
1046	5.91351	3.2404062	146.5207	145.6640	7.036326	32.80207
1047	5.91189	3.2403750	146.7764	145.9182	7.036547	32.80317
1048	5.91017	3.2403751	147.0292	146.1694	7.036764	32.80471
1049	5.90926	3.2403752	147.2851	146.4237	7.036881	32.80547
1050	5.90835	3.2404066	147.5378	146.6748	7.036983	32.80658
1051	5.90769	3.2404067	147.8027	146.9381	7.037070	32.80709
1052	5.90718	3.2403755	148.0736	147.2074	7.037154	32.80710
1053	5.90668	3.2403756	148.3476	147.4797	7.037222	32.80746
1054	5.90622	3.2405007	148.6278	147.7581	7.037220	32.80917
1055	5.90617	3.2408445	148.8986	148.0272	7.037055	32.81294
1056	5.90647	3.2414322	149.2123	148.3390	7.036721	32.81909
1057	5.90749	3.2415261	149.5106	148.6354	7.036555	32.81902
1058	5.90723	3.2413074	149.7816	148.9048	7.036705	32.81667
1059	5.90445	3.2411200	150.0467	149.1682	7.037150	32.81714
1060	5.90086	3.2411201	150.3084	149.4283	7.037597	32.82050
1061	5.89797	3.2409952	150.5824	149.7006	7.038022	32.82176
1062	5.89549	3.2405015	150.8412	149.9577	7.038588	32.81849
1063	5.89215	3.2407516	151.1123	150.2272	7.038876	32.82441
1064	5.89038	3.2406267	151.3711	150.4844	7.039164	32.82460
1065	5.88871	3.2404705	151.6390	150.7505	7.039456	32.82433
1066	5.88674	3.2401644	151.9221	151.0319	7.039863	32.82267
1067	5.88340	3.2395458	152.1993	151.3074	7.040600	32.81882
1068	5.87748	3.2392959	152.4702	151.5766	7.041464	32.82162
1069	5.87197	3.2392023	152.7261	151.8309	7.042197	32.82580
1070	5.86813	3.2391400	153.0120	152.1150	7.042708	32.82868
1071	5.86514	3.2390151	153.2924	152.3936	7.043146	32.83004
1072	5.86115	3.2388965	153.5571	152.6568	7.043705	32.83245
1073	5.85731	3.2389841	153.8434	152.9413	7.044139	32.83703
1074	5.85498	3.2390780	154.1236	153.2197	7.044383	32.84020
1075	5.85397	3.2393593	154.3913	153.4858	7.044368	32.84421
1076	5.85372	3.2394843	154.6593	153.7521	7.044340	32.84573
1077	5.85412	3.2398219	154.9302	154.0213	7.044122	32.84900
1078	5.85433	3.2399157	155.1922	154.2816	7.044054	32.84973
1079	5.85438	3.2399783	155.4571	154.5449	7.044022	32.85026
1080	5.85417	3.2399472	155.7433	154.8293	7.044069	32.84996
1081	5.85337	3.2398848	155.9991	155.0835	7.044207	32.84992
1082	5.85170	3.2398536	156.2791	155.3617	7.044435	32.85105
1083	5.85028	3.2397600	156.5380	155.6190	7.044663	32.85125
1084	5.84866	3.2396351	156.8028	155.8822	7.044933	32.85129
1085	5.84669	3.2394227	157.0800	156.1576	7.045292	32.85068
1086	5.84432	3.2395165	157.3388	156.4148	7.045542	32.85391
1087	5.84295	3.2395791	157.6096	156.6840	7.045683	32.85581
1088	5.84270	3.2395792	157.8623	156.9351	7.045720	32.85593
1089	5.84230	3.2395793	158.1333	157.2043	7.045776	32.85619
1090	5.84184	3.2396106	158.3891	157.4586	7.045822	32.85686
1091	5.84174	3.2396357	158.6845	157.7521	7.045828	32.85710
1092	5.84169	3.2396108	158.9950	158.0607	7.045854	32.85672
1093	5.84154	3.2397921	159.2783	158.3422	7.045785	32.85876
1094	5.84179	3.2397297	159.5433	158.6055	7.045792	32.85769
1095	5.84108	3.2389611	159.7928	158.8535	7.046283	32.84961
1096	5.83719	3.2387425	160.0607	159.1197	7.046882	32.85080
1097	5.83356	3.2389614	160.3196	159.3769	7.047223	32.85667
1098	5.83189	3.2382178	160.5906	159.6463	7.047820	32.84979
1099	5.82860	3.2380305	160.8677	159.9216	7.048328	32.85074
1100	5.82537	3.2381243	161.1325	160.1847	7.048684	32.85481
1101	5.82355	3.2381244	161.4035	160.4541	7.048914	32.85644
1102	5.82239	3.2381558	161.6805	160.7293	7.049047	32.85779
1103	5.82153	3.2378747	161.9517	160.9988	7.049305	32.85533
1104	5.81961	3.2381872	162.2286	161.2740	7.049385	32.86058
1105	5.81901	3.2378124	162.5180	161.5615	7.049661	32.85681
1106	5.81709	3.2373189	162.7919	161.8337	7.050160	32.85299
1107	5.81345	3.2373503	163.0657	162.1058	7.050598	32.85674
1108	5.81098	3.2371317	163.3461	162.3844	7.051023	32.85655
1109	5.80901	3.2371068	163.6169	162.6536	7.051285	32.85805
1110	5.80734	3.2372256	163.8758	162.9109	7.051435	32.86088
1111	5.80643	3.2368883	164.1469	163.1802	7.051728	32.85783
1112	5.80537	3.2370446	164.3963	163.4281	7.051783	32.86050
1113	5.80482	3.2371946	164.6583	163.6885	7.051780	32.86260
1114	5.80426	3.2373197	164.9293	163.9577	7.051790	32.86442
1115	5.80371	3.2374135	165.1971	164.2239	7.051815	32.86588
1116	5.80315	3.2375386	165.4654	164.4905	7.051825	32.86770
1117	5.80285	3.2375386	165.7391	164.7625	7.051868	32.86786
1118	5.80259	3.2375700	166.0254	165.0469	7.051890	32.86831
1119	5.80244	3.2376638	166.3056	165.3254	7.051866	32.86938
1120	5.80219	3.2376951	166.5918	165.6097	7.051887	32.86984
1121	5.80184	3.2377265	166.8688	165.8850	7.051921	32.87040
1122	5.80143	3.2377265	167.1340	166.1485	7.051977	32.87066
1123	5.80078	3.2377516	167.3923	166.4052	7.052050	32.87146
1124	5.80022	3.2376955	167.6362	166.6476	7.052154	32.87124
1125	5.79952	3.2377268	167.8921	166.9018	7.052230	32.87216
1126	5.79876	3.2376019	168.1597	167.1678	7.052395	32.87136
1127	5.79775	3.2374771	168.4307	167.4371	7.052590	32.87080
1128	5.79588	3.2374772	168.7168	167.7214	7.052827	32.87248
1129	5.79437	3.2373211	169.0035	168.0063	7.053101	32.87205
1130	5.79214	3.2371337	169.2774	168.2784	7.053479	32.87197
1131	5.78907	3.2370464	169.5330	168.5325	7.053910	32.87386
1132	5.78664	3.2371090	169.7826	168.7805	7.054182	32.87680
1133	5.78518	3.2367967	170.0474	169.0436	7.054531	32.87458
1134	5.78245	3.2369217	170.3123	169.3069	7.054808	32.87850
1135	5.78134	3.2370468	170.5682	169.5611	7.054886	32.88087
1136	5.78150	3.2370156	170.8300	169.8213	7.054889	32.88024
1137	5.78114	3.2364597	171.1039	170.0934	7.055228	32.87419
1138	5.77822	3.2361786	171.3599	170.3478	7.055742	32.87375
1139	5.77347	3.2361788	171.6276	170.6138	7.056333	32.87823
1140	5.76979	3.2360227	171.8865	170.8711	7.056875	32.87993
1141	5.76681	3.2359041	172.1333	171.1163	7.057309	32.88137
1142	5.76414	3.2358105	172.3768	171.3583	7.057694	32.88280
1143	5.76167	3.2353171	172.6204	171.6003	7.058261	32.87953
1144	5.75940	3.2353735	172.8642	171.8425	7.058518	32.88225
1145	5.75632	3.2349113	173.1074	172.0843	7.059144	32.87992
1146	5.75209	3.2347615	173.3391	172.3145	7.059751	32.88224
1147	5.74805	3.2346367	173.5855	172.5594	7.060320	32.88464
1148	5.74523	3.2346681	173.8447	172.8169	7.060658	32.88762
1149	5.74346	3.2345745	174.0940	173.0646	7.060931	32.88816
1150	5.74220	3.2346058	174.3649	173.3338	7.061076	32.88961
1151	5.74125	3.2344185	174.6269	173.5941	7.061298	32.88830
1152	5.74004	3.2342062	174.8736	173.8392	7.061564	32.88697
1153	5.73807	3.2339253	175.1231	174.0872	7.061959	32.88559
1154	5.73525	3.2337068	175.3788	174.3413	7.062428	32.88575
1155	5.73242	3.2334009	175.6103	174.5713	7.062942	32.88494
1156	5.72915	3.2333385	175.8419	174.8014	7.063384	32.88731
1157	5.72658	3.2332450	176.1127	175.0705	7.063757	32.88863
1158	5.72456	3.2332139	176.4053	175.3612	7.064029	32.89010
1159	5.72295	3.2331515	176.6852	175.6394	7.064268	32.89083
1160	5.72209	3.2332141	176.9379	175.8905	7.064347	32.89224
1161	5.72184	3.2330330	177.1663	176.1175	7.064478	32.89034
1162	5.72073	3.2329394	177.3914	176.3411	7.064669	32.89025
1163	5.71937	3.2329707	177.6169	176.5652	7.064826	32.89182
1164	5.71856	3.2330645	177.8788	176.8254	7.064882	32.89353
1165	5.71796	3.2328773	178.1590	177.1038	7.065061	32.89187
1166	5.71720	3.2328149	178.4146	177.3578	7.065193	32.89178
1167	5.71610	3.2328150	178.6583	177.5999	7.065336	32.89274
1168	5.71479	3.2318909	178.8928	177.8330	7.065986	32.88348
1169	5.71091	3.2316413	179.1365	178.0751	7.066602	32.88432
1170	5.70632	3.2312106	179.3736	178.3107	7.067399	32.88381
1171	5.70199	3.2310234	179.5930	178.5287	7.068038	32.88582
1172	5.69766	3.2301307	179.8122	178.7465	7.069046	32.87986
1173	5.69146	3.2300684	180.0589	178.9917	7.069851	32.88507
1174	5.68572	3.2293008	180.3024	179.2336	7.070969	32.88188
1175	5.67983	3.2294819	180.5493	179.4789	7.071610	32.88954
1176	5.67571	3.2288953	180.7744	179.7026	7.072433	32.88683
1177	5.67168	3.2287768	180.9908	179.9176	7.072999	32.88932
1178	5.66816	3.2287457	181.2131	180.1386	7.073457	32.89229
1179	5.66574	3.2287458	181.4442	180.3681	7.073762	32.89453
1180	5.66433	3.2279407	181.6851	180.6075	7.074363	32.88670
1181	5.65965	3.2275102	181.9162	180.8371	7.075174	32.88629
1182	5.65376	3.2275416	182.1660	181.0854	7.075894	32.89226
1183	5.64954	3.2275105	182.3881	181.3060	7.076439	32.89592
1184	5.64692	3.2275106	182.6258	181.5422	7.076769	32.89836
1185	5.64561	3.2274483	182.8358	181.7508	7.076968	32.89882
1186	5.64401	3.2271737	183.0642	181.9778	7.077317	32.89718
1187	5.64159	3.2270178	183.2895	182.2017	7.077704	32.89766
1188	5.63847	3.2266498	183.5090	182.4198	7.078289	32.89644
1189	5.63495	3.2270804	183.7314	182.6408	7.078504	32.90463
1190	5.63239	3.2272678	183.9747	182.8825	7.078730	32.90913
1191	5.63098	3.2281603	184.2123	183.1186	7.078442	32.92048
1192	5.63068	3.2288969	184.4589	183.3636	7.078098	32.92898
1193	5.63133	3.2297022	184.7176	183.6206	7.077601	32.93732
1194	5.63339	3.2312755	184.9704	183.8718	7.076526	32.95296
1195	5.63832	3.2325993	185.2019	184.1018	7.075226	32.96300
1196	5.64451	3.2329740	185.4484	184.3468	7.074269	32.96106
1197	5.64929	3.2339295	185.6829	184.5798	7.073181	32.96707
1198	5.65437	3.2344854	185.9020	184.7976	7.072266	32.96828
1199	5.65895	3.2346103	186.1274	185.0215	7.071639	32.96510
1200	5.66101	3.2345479	186.3375	185.2303	7.071421	32.96228
1201	5.66096	3.2343918	186.5598	185.4511	7.071514	32.96045
1202	5.65965	3.2341171	186.8215	185.7112	7.071826	32.95850
1203	5.65714	3.2337737	187.0898	185.9777	7.072323	32.95695
1204	5.65397	3.2337426	187.3453	186.2316	7.072738	32.95957
1205	5.65080	3.2338676	187.5949	186.4796	7.073071	32.96396
1206	5.64873	3.2339926	187.8721	186.7550	7.073267	32.96725
1207	5.64753	3.2340864	188.1310	187.0123	7.073373	32.96936
1208	5.64697	3.2344550	188.3866	187.2663	7.073254	32.97394
1209	5.64727	3.2345800	188.6393	187.5173	7.073157	32.97493
1210	5.64758	3.2348549	188.8647	187.7413	7.072981	32.97763
1211	5.64783	3.2351360	189.1023	187.9774	7.072808	32.98045
1212	5.64838	3.2353797	189.3367	188.2102	7.072617	32.98255
1213	5.64894	3.2356609	189.5925	188.4644	7.072407	32.98506
1214	5.64919	3.2357859	189.8299	188.7003	7.072316	32.98611
1215	5.64909	3.2360921	190.0705	188.9394	7.072173	32.98955
1216	5.64853	3.2363108	190.3078	189.1751	7.072133	32.99244
1217	5.64813	3.2367420	190.5728	189.4384	7.071963	32.99758
1218	5.64838	3.2369920	190.8226	189.6867	7.071806	33.00003
1219	5.64899	3.2372045	191.0906	189.9529	7.071626	33.00171
1220	5.64989	3.2372358	191.3248	190.1856	7.071503	33.00106
1221	5.65019	3.2373608	191.5472	190.4065	7.071405	33.00207
1222	5.65075	3.2374234	191.7694	190.6274	7.071309	33.00213
1223	5.65095	3.2375171	192.0038	190.8602	7.071241	33.00288
1224	5.65110	3.2375485	192.2474	191.1023	7.071211	33.00296
1225	5.65130	3.2376110	192.4789	191.3323	7.071159	33.00336
1226	5.65145	3.2377610	192.7134	191.5653	7.071067	33.00479
1227	5.65165	3.2377924	192.9448	191.7952	7.071031	33.00483
1228	5.65190	3.2379486	193.1914	192.0402	7.070923	33.00623
1229	5.65135	3.2381049	193.4291	192.2764	7.070915	33.00842
1230	5.64979	3.2381675	193.6756	192.5213	7.071081	33.01053
1231	5.64813	3.2381988	193.9010	192.7453	7.071275	33.01240
1232	5.64692	3.2382302	194.1261	192.9689	7.071413	33.01383
1233	5.64622	3.2382303	194.3606	193.2019	7.071506	33.01440
1234	5.64546	3.2384428	194.5859	193.4257	7.071493	33.01743
1235	5.64380	3.2385991	194.8172	193.6555	7.071622	33.02071
1236	5.64164	3.2386929	195.0274	193.8644	7.071845	33.02378
1237	5.63958	3.2388805	195.2681	194.1036	7.072007	33.02781
1238	5.63752	3.2390931	195.5056	194.3395	7.072157	33.03211
1239	5.63546	3.2392807	195.7521	194.5844	7.072319	33.03613
1240	5.63390	3.2393432	195.9836	194.8145	7.072484	33.03825
1241	5.63309	3.2393433	196.2179	195.0473	7.072589	33.03893
1242	5.63284	3.2394371	196.4556	195.2834	7.072577	33.04012
1243	5.63259	3.2395310	196.6777	195.5041	7.072564	33.04131
1244	5.63249	3.2395935	196.9124	195.7373	7.072549	33.04200
1245	5.63244	3.2396811	197.1467	195.9700	7.072514	33.04293
1246	5.63239	3.2398062	197.3632	196.1852	7.072460	33.04428
1247	5.63254	3.2406438	197.5913	196.4118	7.072007	33.05350
1248	5.63299	3.2410751	197.8166	196.6357	7.071730	33.05782
1249	5.63385	3.2414815	198.0388	196.8564	7.071417	33.06147
1250	5.63465	3.2415441	198.2795	197.0956	7.071290	33.06127
1251	5.63556	3.2428132	198.4894	197.3041	7.070517	33.07463
1252	5.63722	3.2433072	198.7209	197.5341	7.070058	33.07847
1253	5.63877	3.2438325	198.9279	197.7398	7.069595	33.08278
1254	5.63958	3.2441452	199.1624	197.9728	7.069337	33.08541
1255	5.63928	3.2444829	199.3906	198.1996	7.069203	33.08941
1256	5.63882	3.2449208	199.6163	198.4237	7.069034	33.09469
1257	5.63732	3.2452273	199.8414	198.6474	7.069065	33.09953
1258	5.63520	3.2453837	200.0639	198.8685	7.069249	33.10326
1259	5.63314	3.2454776	200.2737	199.0769	7.069460	33.10625
1260	5.63138	3.2455403	200.5023	199.3040	7.069650	33.10857
1261	5.63018	3.2455716	200.7305	199.5308	7.069788	33.11000
1262	5.62897	3.2455717	200.9496	199.7484	7.069942	33.11107
1263	5.62821	3.2456030	201.1693	199.9667	7.070023	33.11206
1264	5.62711	3.2456031	201.3733	200.1694	7.070165	33.11305
1265	5.62510	3.2456658	201.6014	200.3960	7.070386	33.11562
1266	5.62344	3.2456346	201.8023	200.5957	7.070612	33.11680
1267	5.62183	3.2456659	202.0033	200.7953	7.070799	33.11863
1268	5.62092	3.2455722	202.2195	201.0101	7.070965	33.11835
1269	5.61982	3.2455410	202.4327	201.2220	7.071123	33.11898
1270	5.61916	3.2454472	202.6550	201.4428	7.071258	33.11845
1271	5.61801	3.2451346	202.8679	201.6544	7.071570	33.11595
1272	5.61560	3.2451034	203.0783	201.8634	7.071889	33.11786
1273	5.61363	3.2451348	203.2793	202.0631	7.072120	33.12004
1274	5.61278	3.2452600	203.5199	202.3021	7.072165	33.12218
1275	5.61283	3.2453226	203.7390	202.5198	7.072131	33.12273
1276	5.61353	3.2454164	203.9398	202.7193	7.071999	33.12300
1277	5.61499	3.2453852	204.1502	202.9283	7.071840	33.12111
1278	5.61514	3.2452289	204.3510	203.1278	7.071908	33.11909
1279	5.61414	3.2452290	204.5734	203.3488	7.072038	33.11997
1280	5.61293	3.2452604	204.7775	203.5516	7.072175	33.12141
1281	5.61233	3.2452917	204.9964	203.7690	7.072238	33.12225
1282	5.61193	3.2452292	205.2068	203.9781	7.072326	33.12184
1283	5.61142	3.2452606	205.4261	204.1960	7.072376	33.12258
1284	5.61117	3.2451356	205.6420	204.4104	7.072478	33.12130
1285	5.60997	3.2447041	205.8522	204.6193	7.072858	33.11750
1286	5.60715	3.2444854	206.0502	204.8160	7.073326	33.11769
1287	5.60484	3.2452609	206.2419	205.0065	7.073209	33.12865
1288	5.60720	3.2453235	206.4307	205.1941	7.072888	33.12694
1289	5.60961	3.2452297	206.6319	205.3939	7.072644	33.12341
1290	5.61032	3.2450484	206.8266	205.5873	7.072657	33.12057
1291	5.60946	3.2451047	207.0399	205.7993	7.072738	33.12194
1292	5.60836	3.2450485	207.2439	206.0020	7.072908	33.12229
1293	5.60675	3.2450486	207.4600	206.2167	7.073112	33.12376
1294	5.60554	3.2450174	207.6853	206.4405	7.073283	33.12448
1295	5.60434	3.2447986	207.9107	206.6645	7.073552	33.12308
1296	5.60117	3.2447987	208.1422	206.8945	7.073949	33.12608
1297	5.59851	3.2447988	208.3521	207.1030	7.074283	33.12859
1298	5.59665	3.2448302	208.5561	207.3057	7.074501	33.13068
1299	5.59559	3.2448615	208.7422	207.4905	7.074620	33.13198
1300	5.59519	3.2448616	208.9155	207.6628	7.074673	33.13229
1301	5.59464	3.2448616	209.0799	207.8260	7.074746	33.13275
1302	5.59439	3.2448617	209.2563	208.0013	7.074781	33.13291
1303	5.59409	3.2448305	209.4455	208.1893	7.074839	33.13276
1304	5.59394	3.2448305	209.6403	208.3828	7.074862	33.13281
1305	5.59373	3.2448932	209.8596	208.6007	7.074859	33.13361
1306	5.59328	3.2448932	210.0786	208.8183	7.074920	33.13395
1307	5.59313	3.2456375	210.2948	209.0331	7.074552	33.14241
1308	5.59203	3.2457001	210.5174	209.2542	7.074661	33.14410
1309	5.59072	3.2458816	210.7393	209.4747	7.074733	33.14733
1310	5.58881	3.2474642	210.9711	209.7049	7.074142	33.16702
1311	5.58786	3.2473454	211.1749	209.9074	7.074327	33.16651
1312	5.58771	3.2476520	211.3545	210.0859	7.074189	33.17004
1313	5.58781	3.2478397	211.5313	210.2615	7.074082	33.17198
1314	5.58816	3.2477147	211.6897	210.4189	7.074108	33.17014
1315	5.58831	3.2479649	211.8538	210.5820	7.073962	33.17274
1316	5.58866	3.2483028	212.0397	210.7666	7.073745	33.17613
1317	5.58931	3.2485719	212.2286	210.9543	7.073527	33.17844
1318	5.59002	3.2485219	212.4267	211.1511	7.073471	33.17709
1319	5.59042	3.2485532	212.6306	211.3537	7.073410	33.17694
1320	5.59062	3.2484595	212.8253	211.5471	7.073438	33.17559
1321	5.59062	3.2486472	213.0266	211.7471	7.073344	33.17761
1322	5.59082	3.2492041	213.2182	211.9374	7.073031	33.18363
1323	5.59137	3.2497986	213.4161	212.1341	7.072655	33.18972
1324	5.59308	3.2495796	213.5986	212.3154	7.072564	33.18547
1325	5.59424	3.2494858	213.7572	212.4729	7.072474	33.18319
1326	5.59389	3.2492982	213.9370	212.6515	7.072620	33.18132
1327	5.59333	3.2498864	214.1074	212.8208	7.072383	33.18844
1328	5.59444	3.2502619	214.2781	212.9905	7.072053	33.19152
1329	5.59660	3.2504496	214.4516	213.1628	7.071692	33.19143
1330	5.59856	3.2504184	214.6343	213.3443	7.071470	33.18906
1331	5.59976	3.2504497	214.8263	213.5350	7.071309	33.18813
1332	5.60022	3.2504185	215.0210	213.7285	7.071274	33.18723
1333	5.60037	3.2510068	215.2128	213.9190	7.070951	33.19365
1334	5.60167	3.2512259	215.3986	214.1036	7.070679	33.19475
1335	5.60323	3.2513198	215.5876	214.2914	7.070441	33.19419
1336	5.60454	3.2512886	215.7671	214.4697	7.070301	33.19246
1337	5.60509	3.2514451	215.9408	214.6422	7.070154	33.19360
1338	5.60549	3.2515953	216.1173	214.8176	7.070030	33.19482
1339	5.60620	3.2515954	216.2788	214.9780	7.069946	33.19405
1340	5.60660	3.2516267	216.4494	215.1476	7.069884	33.19392
1341	5.60685	3.2515955	216.6165	215.3135	7.069874	33.19324
1342	5.60690	3.2515642	216.7904	215.4863	7.069888	33.19275
1343	5.60660	3.2515956	216.9758	215.6705	7.069913	33.19331
1344	5.60660	3.2515956	217.1680	215.8614	7.069917	33.19321
1345	5.60630	3.2515957	217.3782	216.0702	7.069959	33.19341
1346	5.60595	3.2516271	217.5912	216.2819	7.069991	33.19400
1347	5.60579	3.2516271	217.7859	216.4753	7.070014	33.19405
1348	5.60559	3.2516272	217.9687	216.6569	7.070043	33.19416
1349	5.60549	3.2516585	218.1392	216.8263	7.070043	33.19453
1350	5.60539	3.2516586	218.3100	216.9960	7.070059	33.19455
1351	5.60549	3.2516899	218.4835	217.1683	7.070034	33.19472
1352	5.60569	3.2516900	218.6508	217.3346	7.070013	33.19444
1353	5.60589	3.2516900	218.8213	217.5039	7.069992	33.19416
1354	5.60595	3.2517276	218.9889	217.6704	7.069970	33.19445
1355	5.60600	3.2517840	219.1716	217.8519	7.069939	33.19495
1356	5.60605	3.2517528	219.3663	218.0454	7.069953	33.19445
1357	5.60615	3.2517529	219.5674	218.2452	7.069946	33.19425
1358	5.60615	3.2517842	219.7473	218.4239	7.069933	33.19452
1359	5.60625	3.2516591	219.9236	218.5990	7.069991	33.19291
1360	5.60559	3.2516279	220.0941	218.7684	7.070092	33.19312
1361	5.60494	3.2516279	220.2554	218.9287	7.070176	33.19368
1362	5.60459	3.2516593	220.4293	219.1014	7.070207	33.19430
1363	5.60454	3.2516593	220.5968	219.2678	7.070217	33.19426
1364	5.60444	3.2517220	220.7733	219.4432	7.070200	33.19498
1365	5.60459	3.2517220	220.9468	219.6155	7.070186	33.19475
1366	5.60474	3.2516908	221.1144	219.7820	7.070187	33.19417
1367	5.60474	3.2516595	221.3123	219.9786	7.070208	33.19371
1368	5.60439	3.2516283	221.5101	220.1751	7.070273	33.19361
1369	5.60373	3.2515971	221.6990	220.3628	7.070374	33.19381
1370	5.60338	3.2515971	221.8847	220.5472	7.070422	33.19406
1371	5.60293	3.2516285	222.0830	220.7443	7.070466	33.19476
1372	5.60238	3.2515660	222.2594	220.9195	7.070571	33.19451
1373	5.60172	3.2515097	222.4269	221.0859	7.070685	33.19444
1374	5.60107	3.2516287	222.6033	221.2612	7.070707	33.19634
1375	5.60102	3.2516913	222.7650	221.4217	7.070684	33.19702
1376	5.60082	3.2515975	222.9355	221.5912	7.070762	33.19607
1377	5.60062	3.2515663	223.0939	221.7485	7.070807	33.19583
1378	5.60052	3.2515976	223.2614	221.9149	7.070807	33.19620
1379	5.60052	3.2516915	223.4317	222.0841	7.070762	33.19718
1380	5.60057	3.2516603	223.6145	222.2657	7.070776	33.19669
1381	5.60082	3.2516917	223.8277	222.4775	7.070733	33.19669
1382	5.60097	3.2518169	224.0439	222.6923	7.070654	33.19785
1383	5.60127	3.2517857	224.2415	222.8886	7.070638	33.19711
1384	5.60147	3.2518483	224.4244	223.0703	7.070584	33.19753
1385	5.60177	3.2521300	224.6101	223.2547	7.070403	33.20033
1386	5.60228	3.2518797	224.7896	223.4331	7.070477	33.19691
1387	5.60228	3.2518172	224.9541	223.5965	7.070513	33.19612
1388	5.60203	3.2520238	225.1156	223.7569	7.070440	33.19863
1389	5.60238	3.2521928	225.2713	223.9116	7.070311	33.20012
1390	5.60308	3.2521615	225.4386	224.0778	7.070244	33.19899
1391	5.60333	3.2521616	225.6180	224.2560	7.070218	33.19865
1392	5.60358	3.2523494	225.8098	224.4466	7.070092	33.20044
1393	5.60404	3.2524121	225.9865	224.6221	7.070008	33.20061
1394	5.60474	3.2524372	226.1509	224.7854	7.069911	33.20012
1395	5.60489	3.2524122	226.3125	224.9460	7.069910	33.19961
1396	5.60514	3.2524373	226.4863	225.1186	7.069869	33.19956
1397	5.60524	3.2524373	226.6473	225.2785	7.069861	33.19938
1398	5.60529	3.2524687	226.8241	225.4542	7.069842	33.19960
1399	5.60534	3.2524687	227.0130	225.6419	7.069840	33.19946
1400	5.60539	3.2524688	227.1864	225.8141	7.069838	33.19932
1401	5.60534	3.2525001	227.3782	226.0047	7.069832	33.19963
1402	5.60539	3.2525315	227.5579	226.1831	7.069813	33.19985
1403	5.60564	3.2525628	227.7342	226.3583	7.069770	33.19987
1404	5.60579	3.2525942	227.9019	226.5249	7.069739	33.19999
1405	5.60574	3.2526255	228.0724	226.6943	7.069732	33.20031
1406	5.60595	3.2526569	228.2369	226.8577	7.069695	33.20039
1407	5.60605	3.2525317	228.4045	227.0241	7.069752	33.19879
1408	5.60579	3.2525631	228.5475	227.1662	7.069770	33.19932
1409	5.60569	3.2528448	228.7121	227.3297	7.069638	33.20253
1410	5.60635	3.2533456	228.8767	227.4933	7.069299	33.20747
1411	5.60801	3.2537776	229.0287	227.6442	7.068871	33.21065
1412	5.60976	3.2539342	229.2025	227.8169	7.068575	33.21061
1413	5.61092	3.2539655	229.3698	227.9831	7.068420	33.20974
1414	5.61137	3.2541847	229.5404	228.1526	7.068253	33.21169
1415	5.61152	3.2542786	229.6957	228.3069	7.068189	33.21253
1416	5.61162	3.2543663	229.8783	228.4883	7.068135	33.21333
1417	5.61157	3.2547107	230.0578	228.6665	7.067964	33.21719
1418	5.61157	3.2547483	230.2284	228.8361	7.067948	33.21753
1419	5.61188	3.2549613	230.3902	228.9967	7.067803	33.21956
1420	5.61233	3.2551178	230.5422	229.1478	7.067669	33.22081
1421	5.61253	3.2551179	230.7065	229.3110	7.067648	33.22054
1422	5.61283	3.2553371	230.8681	229.4715	7.067499	33.22264
1423	5.61333	3.2557065	231.0172	229.6196	7.067247	33.22625
1424	5.61444	3.2558318	231.1635	229.7650	7.067048	33.22651
1425	5.61554	3.2558319	231.3249	229.9253	7.066915	33.22534
1426	5.61625	3.2561137	231.4863	230.0856	7.066684	33.22775
1427	5.61710	3.2572347	231.6353	230.2337	7.065994	33.23953
1428	5.61911	3.2574790	231.7819	230.3793	7.065622	33.24024
1429	5.62112	3.2576669	231.9219	230.5184	7.065278	33.24031
1430	5.62248	3.2576356	232.0709	230.6664	7.065131	33.23854
1431	5.62324	3.2576669	232.2051	230.7997	7.065024	33.23809
1432	5.62359	3.2576357	232.3418	230.9355	7.065001	33.23732
1433	5.62389	3.2580741	232.4853	231.0780	7.064737	33.24191
1434	5.62454	3.2584500	232.6192	231.2110	7.064462	33.24546
1435	5.62560	3.2582308	232.7411	231.3322	7.064450	33.24188
1436	5.62600	3.2583561	232.8079	231.3985	7.064336	33.24286
1437	5.62655	3.2584187	232.7872	231.3780	7.064235	33.24304
1438	5.62671	3.2584813	232.6985	231.2899	7.064181	33.24364
1439	5.62716	3.2584186	232.5650	231.1572	7.064155	33.24255
1440	5.62746	3.2585125	232.4189	231.0121	7.064065	33.24339
1441	5.62781	3.2584812	232.2700	230.8641	7.064035	33.24276
1442	5.62816	3.2582682	232.1301	230.7252	7.064100	33.24007
1443	5.62786	3.2580426	231.9900	230.5860	7.064252	33.23789
1444	5.62741	3.2580113	231.8745	230.4712	7.064322	33.23804
1445	5.62701	3.2579486	231.7563	230.3539	7.064402	33.23778
1446	5.62676	3.2579799	231.6406	230.2389	7.064414	33.23844
1447	5.62671	3.2579172	231.5006	230.0998	7.064449	33.23785
1448	5.62661	3.2578545	231.3484	229.9487	7.064491	33.23732
1449	5.62686	3.2577605	231.2086	229.8098	7.064506	33.23607
1450	5.62706	3.2574223	231.0537	229.6558	7.064655	33.23213
1451	5.62645	3.2567960	230.8620	229.4655	7.065053	33.22573
1452	5.62495	3.2567020	230.6490	229.2539	7.065284	33.22626
1453	5.62359	3.2566080	230.4055	229.0120	7.065495	33.22665
1454	5.62288	3.2564200	230.1594	228.7675	7.065675	33.22534
1455	5.62198	3.2561131	229.9035	228.5133	7.065941	33.22289
1456	5.62097	3.2558626	229.6451	228.2566	7.066191	33.22117
1457	5.62002	3.2556747	229.3743	227.9876	7.066401	33.22012
1458	5.61901	3.2554241	229.1065	227.7215	7.066650	33.21841
1459	5.61816	3.2552112	228.8238	227.4407	7.066861	33.21698
1460	5.61725	3.2549606	228.5349	227.1537	7.067097	33.21518
1461	5.61670	3.2545536	228.2549	226.8756	7.067372	33.21125
1462	5.61605	3.2541841	227.9630	226.5855	7.067640	33.20786
1463	5.61504	3.2538710	227.6769	226.3013	7.067922	33.20545
1464	5.61424	3.2536518	227.3968	226.0231	7.068130	33.20390
1465	5.61328	3.2534327	227.1265	225.7546	7.068356	33.20249
1466	5.61258	3.2532823	226.8615	225.4913	7.068516	33.20161
1467	5.61172	3.2532071	226.5849	225.2165	7.068655	33.20174
1468	5.61127	3.2467869	226.3172	224.9506	7.072073	33.12967
1469	5.61087	3.2529065	226.0340	224.6693	7.068905	33.19945
1470	5.61032	3.2528125	225.7327	224.3700	7.069016	33.19908
1471	5.60961	3.2527186	225.4256	224.0649	7.069145	33.19886
1472	5.60906	3.2525933	225.1366	223.7777	7.069272	33.19813
1473	5.60851	3.2525619	224.8321	223.4753	7.069350	33.19847
1474	5.60806	3.2524679	224.5281	223.1733	7.069448	33.19801
1475	5.60775	3.2524365	224.2269	222.8741	7.069495	33.19810
1476	5.60745	3.2523801	223.9377	222.5868	7.069555	33.19790
1477	5.60715	3.2522861	223.6552	222.3061	7.069635	33.19727
1478	5.60685	3.2522235	223.3689	222.0217	7.069699	33.19700
1479	5.60640	3.2521295	223.0922	221.7468	7.069798	33.19652
1480	5.60595	3.2520981	222.8062	221.4627	7.069864	33.19675
1481	5.60564	3.2520667	222.5081	221.1665	7.069910	33.19684
1482	5.60539	3.2520040	222.2129	220.8733	7.069968	33.19653
1483	5.60519	3.2519414	221.8965	220.5589	7.070018	33.19617
1484	5.60514	3.2519726	221.5708	220.2354	7.070000	33.19673
1485	5.60504	3.2518786	221.2393	219.9061	7.070055	33.19593
1486	5.60489	3.2518785	220.8985	219.5675	7.070065	33.19625
1487	5.60469	3.2518158	220.5580	219.2293	7.070115	33.19591
1488	5.60469	3.2518470	220.2110	218.8845	7.070091	33.19643
1489	5.60504	3.2518468	219.8550	218.5309	7.070039	33.19626
1490	5.60574	3.2519093	219.4895	218.1677	7.069911	33.19645
1491	5.60640	3.2518779	219.1400	217.8206	7.069839	33.19563
1492	5.60700	3.2518778	218.7839	217.4668	7.069757	33.19521
1493	5.60750	3.2518464	218.4372	217.1224	7.069703	33.19453
1494	5.60760	3.2518463	218.0841	216.7715	7.069682	33.19461
1495	5.60791	3.2518774	217.7222	216.4120	7.069621	33.19484
1496	5.60821	3.2518460	217.3571	216.0493	7.069591	33.19437
1497	5.60856	3.2518146	216.9889	215.6835	7.069556	33.19385
1498	5.60871	3.2518145	216.6025	215.2996	7.069529	33.19389
1499	5.60876	3.2518144	216.2191	214.9188	7.069514	33.19403
1500	5.60896	3.2517892	215.8266	214.5288	7.069493	33.19374
1501	5.60921	3.2517202	215.4311	214.1359	7.069489	33.19291
1502	5.60926	3.2516575	215.0325	213.7399	7.069507	33.19235
1503	5.60916	3.2516261	214.6489	213.3588	7.069527	33.19228
1504	5.60911	3.2515947	214.2443	212.9568	7.069540	33.19218
1505	5.60911	3.2515633	213.8578	212.5729	7.069548	33.19201
1506	5.60901	3.2514755	213.4592	212.1768	7.069597	33.19132
1507	5.60896	3.2513190	213.0550	211.7753	7.069676	33.18979
1508	5.60856	3.2510998	212.6411	211.3641	7.069831	33.18791
1509	5.60775	3.2506929	212.2301	210.9558	7.070135	33.18430
1510	5.60615	3.2503549	211.8254	210.5537	7.070502	33.18226
1511	5.60393	3.2499793	211.4145	210.1455	7.070962	33.18039
1512	5.60162	3.2496413	211.0070	209.7406	7.071416	33.17904
1513	5.59931	3.2492971	210.6052	209.3414	7.071873	33.17762
1514	5.59700	3.2489278	210.2096	208.9484	7.072344	33.17591
1515	5.59489	3.2484585	209.8081	208.5495	7.072842	33.17287
1516	5.59328	3.2481205	209.4092	208.1532	7.073209	33.17082
1517	5.59168	3.2477764	209.0076	207.7542	7.073579	33.16870
1518	5.59057	3.2473133	208.6123	207.3615	7.073950	33.16474
1519	5.58987	3.2467815	208.2076	206.9594	7.074307	33.15962
1520	5.58962	3.2464749	207.8119	206.5663	7.074490	33.15659
1521	5.58951	3.2459431	207.4013	206.1583	7.074773	33.15087
1522	5.59022	3.2456053	206.9997	205.7594	7.074854	33.14655
1523	5.59127	3.2453550	206.6040	205.3662	7.074846	33.14287
1524	5.59233	3.2450797	206.2236	204.9884	7.074851	33.13890
1525	5.59368	3.2450170	205.8463	204.6134	7.074708	33.13705
1526	5.59579	3.2449856	205.4752	204.2447	7.074455	33.13480
1527	5.59831	3.2449854	205.1102	203.8821	7.074136	33.13251
1528	5.60077	3.2450166	204.7448	203.5191	7.073806	33.13062
1529	5.60308	3.2450164	204.3767	203.1534	7.073512	33.12853
1530	5.60499	3.2450163	204.0143	202.7933	7.073268	33.12683
1531	5.60640	3.2449849	203.6465	202.4279	7.073102	33.12528
1532	5.60755	3.2450160	203.2935	202.0772	7.072934	33.12467
1533	5.60826	3.2450159	202.9498	201.7357	7.072839	33.12414
1534	5.60891	3.2449846	202.6119	201.4000	7.072767	33.12331
1535	5.60926	3.2449844	202.2742	201.0644	7.072716	33.12313
1536	5.60956	3.2449843	201.9393	200.7317	7.072671	33.12300
1537	5.60966	3.2449530	201.6108	200.4053	7.072668	33.12271
1538	5.60981	3.2449841	201.2821	200.0788	7.072625	33.12308
1539	5.61007	3.2449215	200.9630	199.7618	7.072620	33.12228
1540	5.61007	3.2449214	200.6401	199.4410	7.072612	33.12244
1541	5.61022	3.2449526	200.3176	199.1205	7.072570	33.12280
1542	5.61052	3.2450775	199.9982	198.8032	7.072460	33.12408
1543	5.61183	3.2450774	199.6787	198.4857	7.072291	33.12295
1544	5.61343	3.2451649	199.3620	198.1711	7.072039	33.12252
1545	5.61549	3.2452273	199.0428	197.8539	7.071744	33.12136
1546	5.61756	3.2452272	198.7262	197.5394	7.071482	33.11949
1547	5.61982	3.2452583	198.4040	197.2192	7.071179	33.11778
1548	5.62213	3.2451956	198.0905	196.9078	7.070918	33.11495
1549	5.62464	3.2451642	197.7647	196.5841	7.070617	33.11229
1550	5.62686	3.2450140	197.4574	196.2788	7.070415	33.10857
1551	5.62917	3.2446700	197.1411	195.9645	7.070302	33.10256
1552	5.63188	3.2442696	196.8244	195.6498	7.070169	33.09552
1553	5.63395	3.2438943	196.4928	195.3204	7.070104	33.08942
1554	5.63551	3.2434002	196.1674	194.9971	7.070163	33.08246
1555	5.63656	3.2429374	195.8234	194.6553	7.070267	33.07636
1556	5.63711	3.2424372	195.4951	194.3291	7.070453	33.07032
1557	5.63722	3.2419119	195.1814	194.0174	7.070709	33.06444
1558	5.63701	3.2412617	194.8834	193.7214	7.071068	33.05743
1559	5.63636	3.2408928	194.5759	193.4159	7.071335	33.05405
1560	5.63566	3.2409052	194.2869	193.1287	7.071409	33.05503
1561	5.63530	3.2406426	193.9979	192.8415	7.071583	33.05255
1562	5.63500	3.2402300	193.7117	192.5572	7.071831	33.04832
1563	5.63450	3.2400237	193.4229	192.2702	7.071994	33.04662
1564	5.63425	3.2398986	193.1306	191.9798	7.072084	33.04560
1565	5.63410	3.2396797	192.8264	191.6776	7.072211	33.04342
1566	5.63390	3.2394672	192.5283	191.3813	7.072340	33.04136
1567	5.63370	3.2392796	192.2271	191.0821	7.072457	33.03958
1568	5.63390	3.2391232	191.9441	190.8009	7.072507	33.03776
1569	5.63415	3.2390294	191.6457	190.5045	7.072519	33.03660
1570	5.63470	3.2388481	191.3568	190.2174	7.072539	33.03415
1571	5.63530	3.2387168	191.0614	189.9239	7.072526	33.03222
1572	5.63586	3.2385667	190.7697	189.6341	7.072530	33.03012
1573	5.63681	3.2383541	190.4713	189.3376	7.072516	33.02693
1574	5.63802	3.2381978	190.1795	189.0476	7.072442	33.02413
1575	5.63953	3.2378853	189.8963	188.7663	7.072412	33.01926
1576	5.64109	3.2375790	189.6040	188.4758	7.072373	33.01441
1577	5.64245	3.2373602	189.3241	188.1977	7.072314	33.01075
1578	5.64385	3.2372039	189.0472	187.9226	7.072215	33.00774
1579	5.64486	3.2370538	188.7552	187.6324	7.072162	33.00520
1580	5.64561	3.2369288	188.4814	187.3604	7.072128	33.00318
1581	5.64632	3.2368350	188.1894	187.0703	7.072083	33.00158
1582	5.64687	3.2367412	187.9094	186.7921	7.072058	33.00011
1583	5.64722	3.2366161	187.6262	186.5107	7.072073	32.99850
1584	5.64733	3.2364973	187.3374	186.2237	7.072116	32.99720
1585	5.64733	3.2363411	187.0390	185.9273	7.072191	32.99558
1586	5.64722	3.2361848	186.7561	185.6461	7.072279	32.99405
1587	5.64697	3.2359661	186.4702	185.3621	7.072419	32.99196
1588	5.64692	3.2357848	186.1991	185.0927	7.072514	32.99010
1589	5.64692	3.2355036	185.9283	184.8236	7.072655	32.98705
1590	5.64677	3.2352912	185.6729	184.5699	7.072779	32.98493
1591	5.64667	3.2349788	185.4051	184.3038	7.072949	32.98163
1592	5.64647	3.2347038	185.1526	184.0529	7.073112	32.97884
1593	5.64607	3.2344539	184.8788	183.7808	7.073287	32.97654
1594	5.64587	3.2342102	184.6050	183.5088	7.073433	32.97412
1595	5.64551	3.2340540	184.3159	183.2216	7.073552	32.97284
1596	5.64496	3.2338666	184.0298	182.9373	7.073712	32.97141
1597	5.64481	3.2336791	183.7379	182.6473	7.073823	32.96958
1598	5.64466	3.2335916	183.4516	182.3628	7.073881	32.96888
1599	5.64501	3.2336227	183.1809	182.0937	7.073814	32.96902
1600	5.64612	3.2336226	182.9131	181.8277	7.073671	32.96807
1601	5.64778	3.2335289	182.6545	181.5708	7.073509	32.96551
1602	5.64888	3.2333414	182.4140	181.3317	7.073465	32.96243
1603	5.64984	3.2328168	182.1738	181.0931	7.073616	32.95569
1604	5.64999	3.2325669	181.9334	180.8542	7.073722	32.95283
1605	5.64959	3.2318300	181.6778	180.6003	7.074153	32.94503
1606	5.64818	3.2310869	181.4163	180.3404	7.074711	32.93813
1607	5.64602	3.2305312	181.1483	180.0742	7.075264	32.93410
1608	5.64355	3.2298257	180.8805	179.8080	7.075933	32.92867
1609	5.64099	3.2289268	180.6098	179.5391	7.076716	32.92115
1610	5.63832	3.2283151	180.3360	179.2670	7.077361	32.91697
1611	5.63621	3.2278844	180.0621	178.9948	7.077843	32.91430
1612	5.63495	3.2275098	179.8036	178.7380	7.078189	32.91142
1613	5.63420	3.2273912	179.5448	178.4808	7.078339	32.91094
1614	5.63430	3.2272039	179.2921	178.2298	7.078419	32.90885
1615	5.63495	3.2270790	179.0518	177.9909	7.078398	32.90692
1616	5.63596	3.2270165	178.8145	177.7552	7.078301	32.90535
1617	5.63701	3.2270164	178.5710	177.5132	7.078164	32.90444
1618	5.63827	3.2270475	178.3309	177.2746	7.077987	32.90368
1619	5.64028	3.2271098	178.0722	177.0176	7.077698	32.90255
1620	5.64204	3.2271410	177.8318	176.7787	7.077458	32.90130
1621	5.64380	3.2272969	177.5639	176.5125	7.077152	32.90148
1622	5.64607	3.2274777	177.3052	176.2555	7.076770	32.90144
1623	5.64873	3.2276024	177.0467	175.9986	7.076369	32.90037
1624	5.65170	3.2277896	176.8034	175.7568	7.075897	32.89971
1625	5.65462	3.2279392	176.5536	175.5086	7.075451	32.89868
1626	5.65739	3.2280328	176.2985	175.2552	7.075053	32.89716
1627	5.65960	3.2281263	176.0488	175.0071	7.074724	32.89618
1628	5.66171	3.2282822	175.8143	174.7740	7.074375	32.89600
1629	5.66378	3.2283757	175.5680	174.5293	7.074065	32.89516
1630	5.66589	3.2285879	175.3337	174.2964	7.073686	32.89561
1631	5.66806	3.2286502	175.0873	174.0517	7.073380	32.89433
1632	5.66992	3.2287749	174.8407	173.8066	7.073078	32.89404
1633	5.67148	3.2288934	174.5942	173.5616	7.072817	32.89398
1634	5.67319	3.2290806	174.3357	173.3047	7.072501	32.89455
1635	5.67530	3.2293614	174.0890	173.0597	7.072087	32.89578
1636	5.67792	3.2296047	173.8487	172.8208	7.071629	32.89609
1637	5.68079	3.2299729	173.6176	172.5912	7.071076	32.89756
1638	5.68437	3.2302225	173.3982	172.3732	7.070498	32.89701
1639	5.68804	3.2304659	173.1701	172.1466	7.069910	32.89628
1640	5.69126	3.2308092	172.9361	171.9140	7.069326	32.89713
1641	5.69484	3.2310525	172.7017	171.6811	7.068751	32.89650
1642	5.69821	3.2313334	172.4519	171.4329	7.068181	32.89651
1643	5.70169	3.2316080	172.2177	171.2001	7.067602	32.89633
1644	5.70516	3.2317328	171.9773	170.9613	7.067101	32.89447
1645	5.70783	3.2317951	171.7371	170.7226	7.066733	32.89269
1646	5.70985	3.2318574	171.5058	170.4928	7.066446	32.89154
1647	5.71151	3.2320384	171.2745	170.2630	7.066140	32.89208
1648	5.71343	3.2323193	171.0525	170.0424	7.065752	32.89349
1649	5.71625	3.2324129	170.8425	169.8337	7.065349	32.89190
1650	5.71862	3.2326251	170.6263	169.6189	7.064940	32.89209
1651	5.72093	3.2328748	170.4074	169.4013	7.064518	32.89276
1652	5.72381	3.2330621	170.1945	169.1898	7.064061	32.89218
1653	5.72658	3.2332118	169.9603	168.9570	7.063635	32.89128
1654	5.72900	3.2332742	169.7138	168.7121	7.063297	32.88975
1655	5.73091	3.2335551	169.4641	168.4640	7.062908	32.89117
1656	5.73338	3.2336737	169.2328	168.2342	7.062536	32.89022
1657	5.73560	3.2337985	168.9986	168.0014	7.062191	32.88958
1658	5.73767	3.2338921	168.7856	167.7898	7.061882	32.88872
1659	5.73953	3.2339857	168.5817	167.5871	7.061598	32.88806
1660	5.74094	3.2341105	168.3748	167.3815	7.061354	32.88820
1661	5.74251	3.2343853	168.1527	167.1609	7.061013	32.88988
1662	5.74523	3.2344789	167.9305	166.9401	7.060622	32.88839
1663	5.74760	3.2345412	167.7083	166.7193	7.060292	32.88690
1664	5.74951	3.2346661	167.4744	166.4868	7.059985	32.88655
1665	5.75153	3.2348159	167.2460	166.2598	7.059653	32.88639
1666	5.75370	3.2349719	167.0146	166.0299	7.059298	32.88615
1667	5.75617	3.2351280	166.7986	165.8152	7.058907	32.88561
1668	5.75859	3.2352841	166.5795	165.5976	7.058521	32.88512
1669	5.76111	3.2354339	166.3571	165.3766	7.058127	32.88446
1670	5.76384	3.2355900	166.1413	165.1621	7.057704	32.88367
1671	5.76671	3.2357148	165.9345	164.9567	7.057280	32.88238
1672	5.76934	3.2359583	165.7276	164.7510	7.056824	32.88267
1673	5.77191	3.2360520	165.5115	164.5362	7.056453	32.88133
1674	5.77438	3.2360519	165.3106	164.3366	7.056144	32.87902
1675	5.77579	3.2360830	165.0855	164.1130	7.055948	32.87811
1676	5.77701	3.2361454	164.8636	163.8924	7.055761	32.87774
1677	5.77822	3.2362390	164.6320	163.6623	7.055558	32.87773
1678	5.77917	3.2362390	164.4159	163.4476	7.055434	32.87690
1679	5.77993	3.2363014	164.2031	163.2361	7.055304	32.87697
1680	5.78084	3.2363325	163.9930	163.0274	7.055171	32.87654
1681	5.78180	3.2363949	163.7801	162.8157	7.055015	32.87642
1682	5.78311	3.2364261	163.5641	162.6011	7.054832	32.87560
1683	5.78452	3.2364572	163.3572	162.3955	7.054637	32.87467
1684	5.78553	3.2365196	163.1412	162.1809	7.054475	32.87450
1685	5.78649	3.2365196	162.9374	161.9783	7.054352	32.87367
1686	5.78725	3.2364882	162.7274	161.7696	7.054270	32.87268
1687	5.78755	3.2365194	162.5174	161.5610	7.054212	32.87284
1688	5.78785	3.2365443	162.3045	161.3494	7.054157	32.87293
1689	5.78866	3.2365755	162.0824	161.1287	7.054036	32.87261
1690	5.78982	3.2366067	161.8629	160.9106	7.053871	32.87193
1691	5.79114	3.2366690	161.6534	160.7024	7.053672	32.87146
1692	5.79285	3.2366690	161.4493	160.4996	7.053456	32.86989
1693	5.79432	3.2366689	161.2454	160.2969	7.053271	32.86857
1694	5.79573	3.2366688	161.0355	160.0884	7.053092	32.86730
1695	5.79719	3.2366063	160.8194	159.8737	7.052939	32.86527
1696	5.79825	3.2366062	160.5790	159.6347	7.052803	32.86436
1697	5.79896	3.2366373	160.3539	159.4111	7.052694	32.86413
1698	5.79987	3.2366685	160.1531	159.2116	7.052561	32.86370
1699	5.80088	3.2367621	159.9554	159.0151	7.052384	32.86387
1700	5.80249	3.2368558	159.7544	158.8153	7.052131	32.86345
1701	5.80426	3.2369182	159.5356	158.5978	7.051876	32.86254
1702	5.80573	3.2369493	159.3225	158.3861	7.051674	32.86157
1703	5.80699	3.2370430	159.1032	158.1682	7.051465	32.86151
1704	5.80850	3.2371616	158.8753	157.9417	7.051212	32.86148
1705	5.81027	3.2372302	158.6500	157.7178	7.050953	32.86065
1706	5.81178	3.2372864	158.4276	157.4968	7.050732	32.85991
1707	5.81320	3.2373800	158.2086	157.2792	7.050504	32.85970
1708	5.81461	3.2374736	158.0018	157.0737	7.050277	32.85948
1709	5.81603	3.2375048	157.7946	156.8678	7.050081	32.85856
1710	5.81724	3.2375047	157.5850	156.6595	7.049927	32.85748
1711	5.81790	3.2375359	157.3659	156.4417	7.049825	32.85730
1712	5.81860	3.2376295	157.1376	156.2148	7.049684	32.85778
1713	5.81961	3.2376607	156.9127	155.9914	7.049538	32.85726
1714	5.82047	3.2377793	156.6840	155.7642	7.049366	32.85787
1715	5.82148	3.2378417	156.4653	155.5468	7.049204	32.85770
1716	5.82274	3.2379041	156.2368	155.3197	7.049011	32.85729
1717	5.82416	3.2379353	156.0054	155.0897	7.048815	32.85637
1718	5.82517	3.2379352	155.7774	154.8632	7.048686	32.85550
1719	5.82598	3.2379351	155.5612	154.6483	7.048581	32.85482
1720	5.82663	3.2379351	155.3421	154.4306	7.048495	32.85429
1721	5.82704	3.2379350	155.1383	154.2281	7.048441	32.85400
1722	5.82729	3.2379974	154.9285	154.0196	7.048373	32.85456
1723	5.82780	3.2379661	154.7154	153.8078	7.048322	32.85382
1724	5.82830	3.2380285	154.4811	153.5750	7.048222	32.85414
1725	5.82876	3.2380284	154.2468	153.3421	7.048161	32.85382
1726	5.82916	3.2380909	154.0185	153.1152	7.048073	32.85424
1727	5.82972	3.2381220	153.7842	152.8824	7.047983	32.85416
1728	5.83062	3.2381844	153.5589	152.6585	7.047834	32.85409
1729	5.83153	3.2382468	153.3461	152.4470	7.047685	32.85401
1730	5.83275	3.2382468	153.1302	152.2325	7.047530	32.85294
1731	5.83366	3.2382779	152.9047	152.0084	7.047397	32.85252
1732	5.83452	3.2382778	152.6675	151.7727	7.047286	32.85180
1733	5.83497	3.2382465	152.4088	151.5156	7.047240	32.85113
1734	5.83537	3.2382464	152.1623	151.2706	7.047185	32.85086
1735	5.83558	3.2381839	151.9278	151.0376	7.047187	32.85007
1736	5.83583	3.2381213	151.6966	150.8079	7.047183	32.84924
1737	5.83568	3.2381212	151.4624	150.5750	7.047197	32.84950
1738	5.83603	3.2381524	151.2008	150.3151	7.047131	32.84964
1739	5.83704	3.2381523	150.9056	150.0217	7.047000	32.84880
1740	5.83820	3.2381834	150.6349	149.7527	7.046835	32.84815
1741	5.83977	3.2382146	150.3941	149.5134	7.046620	32.84710
1742	5.84159	3.2383082	150.1599	149.2807	7.046342	32.84650
1743	5.84417	3.2384893	149.9255	149.0478	7.045925	32.84615
1744	5.84765	3.2386142	149.6912	148.8149	7.045426	32.84428
1745	5.85079	3.2386766	149.4632	148.5883	7.045003	32.84205
1746	5.85357	3.2388327	149.2441	148.3706	7.044575	32.84121
1747	5.85635	3.2388951	149.0189	148.1467	7.044195	32.83932
1748	5.85908	3.2389575	148.7723	147.9017	7.043821	32.83749
1749	5.86130	3.2389824	148.5260	147.6569	7.043529	32.83574
1750	5.86327	3.2390761	148.2733	147.4058	7.043232	32.83500
1751	5.86520	3.2392322	148.0329	147.1669	7.042909	32.83500
1752	5.86757	3.2394196	147.7985	146.9339	7.042514	32.83492
1753	5.87076	3.2396632	147.5642	146.7011	7.041991	32.83468
1754	5.87415	3.2398818	147.3177	146.4561	7.041455	32.83397
1755	5.87804	3.2402255	147.0803	146.2202	7.040793	32.83416
1756	5.88300	3.2405316	146.8462	145.9875	7.040019	32.83291
1757	5.88846	3.2406253	146.6118	145.7546	7.039294	32.82877
1758	5.89301	3.2408752	146.3805	145.5247	7.038600	32.82727
1759	5.89762	3.2409313	146.1430	145.2887	7.037999	32.82356
1760	5.90111	3.2409937	145.9026	145.0498	7.037532	32.82099
1761	5.90384	3.2410248	145.6440	144.7928	7.037174	32.81881
1762	5.90597	3.2410247	145.3943	144.5447	7.036908	32.81687
1763	5.90784	3.2409934	145.1420	144.2939	7.036688	32.81483
1764	5.90926	3.2409308	144.9046	144.0580	7.036541	32.81287
1765	5.91037	3.2408432	144.6764	143.8312	7.036444	32.81092
1766	5.91113	3.2407181	144.4389	143.5951	7.036410	32.80890
1767	5.91164	3.2406868	144.1983	143.3561	7.036359	32.80817
1768	5.91204	3.2406242	143.9488	143.1081	7.036335	32.80720
1769	5.91260	3.2405616	143.7024	142.8633	7.036294	32.80608
1770	5.91305	3.2404990	143.4529	142.6152	7.036265	32.80505
1771	5.91341	3.2404364	143.2095	142.3734	7.036248	32.80413
1772	5.91381	3.2404051	142.9599	142.1254	7.036209	32.80351
1773	5.91412	3.2403738	142.7194	141.8863	7.036182	32.80298
1774	5.91457	3.2403424	142.4729	141.6413	7.036137	32.80231
1775	5.91508	3.2403423	142.2354	141.4053	7.036069	32.80193
1776	5.91629	3.2403735	141.9981	141.1694	7.035899	32.80122
1777	5.91771	3.2404047	141.7668	140.9396	7.035703	32.80031
1778	5.91918	3.2404358	141.5234	140.6977	7.035501	32.79935
1779	5.92105	3.2404357	141.2831	140.4588	7.035265	32.79766
1780	5.92277	3.2404669	141.0364	140.2137	7.035032	32.79646
1781	5.92455	3.2404356	140.7899	139.9688	7.034825	32.79451
1782	5.92612	3.2403105	140.5405	139.7209	7.034691	32.79171
1783	5.92769	3.2399416	140.2878	139.4697	7.034683	32.78617
1784	5.92875	3.2393540	140.0444	139.2278	7.034850	32.77867
1785	5.92860	3.2378979	139.8011	138.9860	7.035615	32.76261
1786	5.92622	3.2370356	139.5698	138.7562	7.036348	32.75535
1787	5.92318	3.2359798	139.3261	138.5140	7.037261	32.74657
1788	5.91989	3.2350865	139.0980	138.2873	7.038122	32.73984
1789	5.91736	3.2346554	138.8543	138.0451	7.038651	32.73757
1790	5.91650	3.2344368	138.6142	137.8064	7.038864	32.73607
1791	5.91817	3.2341931	138.3705	137.5643	7.038779	32.73184
1792	5.92151	3.2337870	138.1239	137.3191	7.038572	32.72417
1793	5.92404	3.2335746	137.8746	137.0714	7.038365	32.71947
1794	5.92551	3.2331998	137.6281	136.8264	7.038372	32.71397
1795	5.92607	3.2327063	137.3785	136.5784	7.038553	32.70802
1796	5.92551	3.2324627	137.1442	136.3455	7.038742	32.70594
1797	5.92379	3.2312576	136.9038	136.1065	7.039571	32.69420
1798	5.91908	3.2307019	136.6694	135.8736	7.040433	32.69263
1799	5.91346	3.2295595	136.4381	135.6438	7.041710	32.68536
1800	5.90572	3.2275871	136.1979	135.4050	7.043678	32.67082
1801	5.89367	3.2259834	135.9603	135.1688	7.045988	32.66457
1802	5.88032	3.2253097	135.7260	134.9360	7.047979	32.67002
1803	5.87050	3.2246920	135.4736	134.6852	7.049504	32.67268
1804	5.86393	3.2250601	135.2209	134.4340	7.050119	32.68329
1805	5.86307	3.2257089	134.9712	134.1858	7.049883	32.69153
1806	5.86747	3.2259833	134.7279	133.9440	7.049192	32.69048
1807	5.87374	3.2253093	134.4781	133.6957	7.048762	32.67697
1808	5.87713	3.2239554	134.2440	133.4631	7.049040	32.65861
1809	5.87607	3.2227203	134.0063	133.2269	7.049805	32.64589
1810	5.87197	3.2216164	133.7691	132.9911	7.050878	32.63757
1811	5.86702	3.2205064	133.5501	132.7734	7.052060	32.62999
1812	5.86166	3.2198953	133.3186	132.5434	7.053034	32.62841
1813	5.85741	3.2197394	133.0813	132.3075	7.053635	32.63087
1814	5.85458	3.2190971	132.8501	132.0778	7.054313	32.62651
1815	5.85240	3.2189724	132.6188	131.8479	7.054641	32.62731
1816	5.85104	3.2188477	132.3935	131.6240	7.054869	32.62734
1817	5.85033	3.2187167	132.1713	131.4032	7.055020	32.62666
1818	5.84978	3.2186044	131.9462	131.1794	7.055142	32.62604
1819	5.84932	3.2186355	131.7272	130.9618	7.055177	32.62694
1820	5.84942	3.2186666	131.5081	130.7439	7.055143	32.62730
1821	5.85013	3.2187538	131.2950	130.5322	7.055006	32.62770
1822	5.85099	3.2188784	131.0820	130.3205	7.054830	32.62837
1823	5.85230	3.2190342	130.8627	130.1026	7.054582	32.62896
1824	5.85387	3.2191838	130.6590	129.9001	7.054306	32.62923
1825	5.85579	3.2192148	130.4430	129.6854	7.054047	32.62783
1826	5.85751	3.2191524	130.2144	129.4582	7.053862	32.62558
1827	5.85893	3.2190650	129.9894	129.2346	7.053727	32.62335
1828	5.85999	3.2187532	129.7764	129.0229	7.053753	32.61892
1829	5.86024	3.2186036	129.5755	128.8233	7.053795	32.61710
1830	5.86024	3.2184788	129.3656	128.6146	7.053855	32.61580
1831	5.85989	3.2182356	129.1497	128.4000	7.054020	32.61351
1832	5.85918	3.2181109	128.9334	128.1850	7.054167	32.61290
1833	5.85857	3.2179862	128.7234	127.9763	7.054302	32.61219
1834	5.85797	3.2178053	128.5073	127.7615	7.054466	32.61085
1835	5.85721	3.2176494	128.2852	127.5408	7.054636	32.60994
1836	5.85665	3.2175434	128.0842	127.3410	7.054755	32.60938
1837	5.85640	3.2174374	127.8651	127.1233	7.054836	32.60854
1838	5.85650	3.2173750	127.6460	126.9055	7.054851	32.60785
1839	5.85701	3.2172814	127.4331	126.6939	7.054832	32.60641
1840	5.85746	3.2172502	127.2109	126.4730	7.054787	32.60573
1841	5.85827	3.2172501	126.9887	126.2523	7.054682	32.60506
1842	5.85973	3.2175866	126.7666	126.0315	7.054321	32.60753
1843	5.86363	3.2181413	126.5564	125.8226	7.053548	32.61011
1844	5.87238	3.2192758	126.3376	125.6051	7.051873	32.61452
1845	5.88755	3.2205350	126.1305	125.3993	7.049342	32.61413
1846	5.90830	3.2216448	125.9236	125.1937	7.046202	32.60669
1847	5.93159	3.2225363	125.7349	125.0061	7.042864	32.59435
1848	5.95311	3.2230600	125.5190	124.7915	7.039934	32.57960
1849	5.97029	3.2233342	125.3209	124.5946	7.037672	32.56625
1850	5.98307	3.2236708	125.1170	124.3919	7.035920	32.55784
1851	5.99311	3.2239825	124.8981	124.1744	7.034518	32.55179
1852	6.00128	3.2241321	124.6758	123.9534	7.033431	32.54573
1853	6.00731	3.2242879	124.4537	123.7327	7.032603	32.54179
1854	6.01203	3.2244126	124.2343	123.5147	7.031953	32.53876
1855	6.01594	3.2246246	124.0244	123.3060	7.031359	32.53748
1856	6.01964	3.2247805	123.8298	123.1126	7.030818	32.53576
1857	6.02324	3.2248739	123.6289	122.9129	7.030322	32.53345
1858	6.02614	3.2249362	123.4339	122.7191	7.029930	32.53146
1859	6.02863	3.2250048	123.2302	122.5166	7.029585	32.52994
1860	6.03066	3.2250858	123.0110	122.2988	7.029288	32.52901
1861	6.03243	3.2251481	122.7981	122.0872	7.029033	32.52810
1862	6.03416	3.2251480	122.5759	121.8663	7.028816	32.52655
1863	6.03522	3.2252103	122.3627	121.6545	7.028648	32.52633
1864	6.03609	3.2252414	122.1530	121.4460	7.028521	32.52595
1865	6.03690	3.2253662	121.9611	121.2553	7.028353	32.52666
1866	6.03822	3.2253973	121.7602	121.0556	7.028170	32.52584
1867	6.03995	3.2255157	121.5686	120.8651	7.027893	32.52560
1868	6.04187	3.2256405	121.3799	120.6776	7.027588	32.52524
1869	6.04416	3.2258899	121.1759	120.4748	7.027174	32.52593
1870	6.04771	3.2260396	120.9751	120.2752	7.026656	32.52429
1871	6.05168	3.2261643	120.7561	120.0576	7.026100	32.52199
1872	6.05528	3.2263202	120.5368	119.8396	7.025572	32.52039
1873	6.05909	3.2264698	120.3178	119.6220	7.025022	32.51851
1874	6.06244	3.2265633	120.1228	119.4282	7.024558	32.51644
1875	6.06524	3.2266568	119.9251	119.2316	7.024163	32.51490
1876	6.06793	3.2267192	119.7274	119.0351	7.023795	32.51311
1877	6.07001	3.2267503	119.5142	118.8233	7.023519	32.51157
1878	6.07154	3.2268438	119.2860	118.5964	7.023279	32.51126
1879	6.07266	3.2268749	119.0608	118.3725	7.023120	32.51065
1880	6.07372	3.2268748	118.8447	118.1578	7.022985	32.50973
1881	6.07469	3.2269309	118.6347	117.9491	7.022833	32.50953
1882	6.07530	3.2269308	118.4214	117.7371	7.022753	32.50905
1883	6.07591	3.2269620	118.2209	117.5378	7.022658	32.50891
1884	6.07631	3.2269931	118.0229	117.3410	7.022587	32.50896
1885	6.07703	3.2270555	117.8313	117.1505	7.022464	32.50907
1886	6.07794	3.2271178	117.6212	116.9417	7.022315	32.50899
1887	6.07921	3.2272425	117.4116	116.7333	7.022090	32.50927
1888	6.08063	3.2273360	117.2043	116.5273	7.021863	32.50905
1889	6.08267	3.2274733	116.9882	116.3125	7.021538	32.50874
1890	6.08480	3.2276729	116.7692	116.0949	7.021169	32.50903
1891	6.08755	3.2277664	116.5498	115.8768	7.020779	32.50755
1892	6.09075	3.2278599	116.3367	115.6650	7.020334	32.50563
1893	6.09359	3.2280096	116.1359	115.4654	7.019903	32.50467
1894	6.09665	3.2281655	115.9229	115.2537	7.019444	32.50359
1895	6.09959	3.2284088	115.7220	115.0540	7.018954	32.50358
1896	6.10336	3.2285648	115.5092	114.8425	7.018407	32.50182
1897	6.10742	3.2291514	115.3052	114.6397	7.017604	32.50457
1898	6.11388	3.2294571	115.0891	114.4249	7.016650	32.50190
1899	6.12090	3.2298877	114.8761	114.2132	7.015565	32.50009
1900	6.12792	3.2302621	114.6658	114.0042	7.014508	32.49765
1901	6.13535	3.2305991	114.4470	113.7867	7.013421	32.49440
1902	6.14294	3.2310922	114.2308	113.5719	7.012235	32.49275
1903	6.15159	3.2317101	114.0178	113.3602	7.010855	32.49146
1904	6.16136	3.2319910	113.7955	113.1392	7.009509	32.48535
1905	6.17002	3.2322968	113.5946	112.9395	7.008289	32.48058
1906	6.17756	3.2325402	113.3878	112.7339	7.007238	32.47619
1907	6.18393	3.2326961	113.1809	112.5283	7.006375	32.47194
1908	6.18948	3.2329458	112.9646	112.3133	7.005563	32.46952
1909	6.19473	3.2330956	112.7487	112.0986	7.004840	32.46628
1910	6.19942	3.2332203	112.5263	111.8777	7.004198	32.46330
1911	6.20324	3.2333451	112.3073	111.6599	7.003662	32.46114
1912	6.20681	3.2334075	112.0974	111.4513	7.003190	32.45853
1913	6.20941	3.2334698	111.8877	111.2428	7.002835	32.45685
1914	6.21150	3.2335634	111.6621	111.0187	7.002527	32.45600
1915	6.21338	3.2337132	111.4369	110.7948	7.002216	32.45598
1916	6.21603	3.2338693	111.2177	110.5769	7.001807	32.45529
1917	6.21930	3.2340878	111.0048	110.3653	7.001293	32.45471
1918	6.22322	3.2342375	110.7827	110.1445	7.000732	32.45273
1919	6.22674	3.2343311	110.5665	109.9297	7.000249	32.45052
1920	6.22985	3.2344872	110.3564	109.7208	6.999785	32.44939
1921	6.23317	3.2346120	110.1463	109.5119	6.999312	32.44772
1922	6.23618	3.2347930	109.9426	109.3095	6.998848	32.44696
1923	6.23903	3.2348866	109.7386	109.1068	6.998447	32.44537
1924	6.24153	3.2350115	109.5257	108.8952	6.998074	32.44448
1925	6.24373	3.2352925	109.3186	108.6892	6.997659	32.44561
1926	6.24659	3.2356922	109.1056	108.4775	6.997102	32.44743
1927	6.25108	3.2361856	108.8865	108.2597	6.996299	32.44874
1928	6.25725	3.2366790	108.6793	108.0538	6.995290	32.44843
1929	6.26480	3.2372974	108.4725	107.8482	6.994050	32.44820
1930	6.27435	3.2377596	108.2656	107.6426	6.992646	32.44433
1931	6.28390	3.2383218	108.0523	107.4306	6.991192	32.44158
1932	6.29304	3.2389403	107.8427	107.2222	6.989760	32.43984
1933	6.30290	3.2400525	107.6356	107.0163	6.987991	32.44289
1934	6.31665	3.2407336	107.4286	106.8106	6.985967	32.43746
1935	6.33101	3.2414147	107.2186	106.6019	6.983869	32.43144
1936	6.34512	3.2418458	107.0055	106.3901	6.981929	32.42289
1937	6.35781	3.2421895	106.7956	106.1814	6.980208	32.41474
1938	6.36835	3.2423081	106.5733	105.9604	6.978861	32.40614
1939	6.37597	3.2424017	106.3539	105.7424	6.977882	32.40004
1940	6.38170	3.2424954	106.1381	105.5278	6.977133	32.39573
1941	6.38647	3.2424952	105.9191	105.3102	6.976550	32.39131
1942	6.39010	3.2424951	105.7120	105.1043	6.976103	32.38796
1943	6.39287	3.2424950	105.5021	104.8957	6.975763	32.38543
1944	6.39491	3.2424324	105.3040	104.6988	6.975541	32.38289
1945	6.39635	3.2424324	105.1004	104.4964	6.975362	32.38163
1946	6.39752	3.2424010	104.8964	104.2937	6.975231	32.38026
1947	6.39855	3.2424010	104.6893	104.0878	6.975102	32.37938
1948	6.39952	3.2423384	104.4733	103.8731	6.975010	32.37787
1949	6.40034	3.2423383	104.2541	103.6552	6.974906	32.37720
1950	6.40126	3.2423069	104.0380	103.4404	6.974805	32.37608
1951	6.40172	3.2422444	103.8065	103.2102	6.974776	32.37506
1952	6.40213	3.2422443	103.5754	102.9805	6.974721	32.37478
1953	6.40259	3.2422442	103.3593	102.7657	6.974660	32.37445
1954	6.40290	3.2421566	103.1463	102.5540	6.974662	32.37329
1955	6.40316	3.2420940	102.9359	102.3449	6.974658	32.37245
1956	6.40362	3.2420314	102.7382	102.1483	6.974629	32.37142
1957	6.40377	3.2419064	102.5407	101.9520	6.974669	32.36998
1958	6.40408	3.2417813	102.3365	101.7491	6.974690	32.36840
1959	6.40459	3.2417812	102.1327	101.5465	6.974624	32.36801
1960	6.40567	3.2419687	101.9286	101.3436	6.974394	32.36917
1961	6.40823	3.2421874	101.7127	101.1290	6.973968	32.36926
1962	6.41238	3.2423373	101.4995	100.9171	6.973384	32.36708
1963	6.41745	3.2423997	101.2927	100.7115	6.972732	32.36306
1964	6.42267	3.2423683	101.0947	100.5147	6.972109	32.35785
1965	6.42693	3.2423370	100.8908	100.3121	6.971604	32.35357
1966	6.43046	3.2422431	100.6900	100.1124	6.971217	32.34928
1967	6.43333	3.2421867	100.4770	99.9007	6.970892	32.34604
1968	6.43590	3.2420303	100.2609	99.6859	6.970655	32.34198
1969	6.43810	3.2418427	100.0419	99.4682	6.970477	32.33793
1970	6.43979	3.2412238	99.8317	99.2592	6.970578	32.32958
1971	6.44061	3.2409737	99.6276	99.0564	6.970599	32.32614
1972	6.44123	3.2404485	99.4208	98.8508	6.970784	32.31985
1973	6.44194	3.2400485	99.2262	98.6573	6.970893	32.31484
1974	6.44261	3.2397671	99.0129	98.4453	6.970949	32.31120
1975	6.44328	3.2395546	98.8059	98.2396	6.970970	32.30832
1976	6.44410	3.2393670	98.6019	98.0368	6.970960	32.30557
1977	6.44476	3.2392107	98.3952	97.8313	6.970953	32.30331
1978	6.44522	3.2390232	98.1820	97.6194	6.970987	32.30090
1979	6.44522	3.2387794	97.9814	97.4200	6.971105	32.29831
1980	6.44471	3.2385606	97.7802	97.2200	6.971273	32.29647
1981	6.44405	3.2383731	97.5823	97.0233	6.971444	32.29512
1982	6.44374	3.2382855	97.3755	96.8177	6.971520	32.29454
1983	6.44461	3.2382542	97.1777	96.6211	6.971426	32.29347
1984	6.44630	3.2382854	96.9738	96.4184	6.971200	32.29231
1985	6.44902	3.2386227	96.7607	96.2066	6.970696	32.29357
1986	6.45384	3.2393975	96.5416	95.9888	6.969717	32.29767
1987	6.46230	3.2397661	96.3224	95.7709	6.968500	32.29385
1988	6.47148	3.2403847	96.1032	95.5530	6.967070	32.29210
1989	6.48148	3.2410658	95.8748	95.3260	6.965510	32.29027
1990	6.49154	3.2417470	95.6771	95.1294	6.963944	32.28838
1991	6.50094	3.2421845	95.4761	94.9297	6.962581	32.28443
1992	6.50910	3.2427720	95.2810	94.7357	6.961293	32.28329
1993	6.51634	3.2427406	95.0742	94.5301	6.960427	32.27621
1994	6.52194	3.2428030	94.8706	94.3278	6.959713	32.27171
1995	6.52579	3.2425528	94.6726	94.1309	6.959367	32.26540
1996	6.52795	3.2423652	94.4597	93.9192	6.959195	32.26140
1997	6.52892	3.2422150	94.2496	93.7104	6.959147	32.25892
1998	6.52923	3.2419024	94.0336	93.4957	6.959261	32.25529
1999	6.52866	3.2418086	93.8234	93.2868	6.959372	32.25489
2000	6.52836	3.2417460	93.6198	93.0843	6.959436	32.25458
2001	6.52800	3.2417772	93.4063	92.8721	6.959460	32.25537
2002	6.52861	3.2419334	93.1963	92.6634	6.959302	32.25661
2003	6.53092	3.2422396	92.9894	92.4577	6.958865	32.25790
2004	6.53462	3.2428960	92.8039	92.2733	6.958085	32.26174
2005	6.54089	3.2433898	92.6088	92.0794	6.957074	32.26136
2006	6.54870	3.2441025	92.4111	91.8829	6.955768	32.26194
2007	6.55734	3.2446276	92.2040	91.6770	6.954457	32.25968
2008	6.56520	3.2451840	92.0003	91.4745	6.953223	32.25849
2009	6.57271	3.2454966	91.7872	91.2626	6.952154	32.25495
2010	6.57955	3.2458967	91.5831	91.0598	6.951123	32.25301
2011	6.58624	3.2462093	91.3762	90.8541	6.950154	32.25024
2012	6.59277	3.2464281	91.1785	90.6576	6.949251	32.24659
2013	6.59874	3.2467657	90.9651	90.4455	6.948356	32.24478
2014	6.60491	3.2470158	90.7644	90.2459	6.947481	32.24181
2015	6.61057	3.2472971	90.5574	90.0402	6.946653	32.23967
2016	6.61598	3.2474784	90.3534	89.8374	6.945905	32.23667
2017	6.62071	3.2476660	90.1404	89.6257	6.945235	32.23438
2018	6.62458	3.2476972	89.9305	89.4170	6.944749	32.23119
2019	6.62787	3.2476658	89.7235	89.2112	6.944362	32.22784
2020	6.62993	3.2476344	89.5167	89.0057	6.944124	32.22565
2021	6.63132	3.2476656	89.3036	88.7937	6.943936	32.22479
2022	6.63281	3.2478845	89.0996	88.5910	6.943643	32.22589
2023	6.63534	3.2477593	88.8895	88.3821	6.943396	32.22223
2024	6.63729	3.2474151	88.6884	88.1823	6.943326	32.21670
2025	6.63812	3.2469835	88.4876	87.9826	6.943437	32.21128
2026	6.63889	3.2466706	88.2806	87.7769	6.943495	32.20721
2027	6.64059	3.2464892	88.0799	87.5773	6.943375	32.20371
2028	6.64358	3.2464891	87.8698	87.3685	6.943010	32.20100
2029	6.64765	3.2466078	87.6629	87.1628	6.942455	32.19858
2030	6.65270	3.2466702	87.4526	86.9537	6.941810	32.19462
2031	6.65728	3.2468578	87.2488	86.7512	6.941159	32.19247
2032	6.66192	3.2470140	87.0356	86.5392	6.940517	32.18992
2033	6.66615	3.2471390	86.8287	86.3335	6.939941	32.18743
2034	6.66996	3.2472640	86.6279	86.1339	6.939414	32.18531
2035	6.67321	3.2473515	86.4177	85.9249	6.938974	32.18332
2036	6.67568	3.2473827	86.2081	85.7166	6.938656	32.18144
2037	6.67754	3.2474139	86.0009	85.5106	6.938412	32.18014
2038	6.67888	3.2474764	85.8060	85.3169	6.938215	32.17965
2039	6.68006	3.2474763	85.6053	85.1174	6.938068	32.17864
2040	6.68089	3.2474762	85.4013	84.9145	6.937964	32.17796
2041	6.68171	3.2475700	85.2002	84.7146	6.937814	32.17831
2042	6.68238	3.2476012	84.9903	84.5060	6.937713	32.17812
2043	6.68321	3.2476637	84.7712	84.2882	6.937578	32.17813
2044	6.68388	3.2477261	84.5642	84.0824	6.937462	32.17829
2045	6.68460	3.2477573	84.3480	83.8675	6.937354	32.17806
2046	6.68558	3.2478824	84.1442	83.6649	6.937170	32.17860
2047	6.68671	3.2479762	83.9403	83.4622	6.936982	32.17866
2048	6.68790	3.2480074	83.7362	83.2593	6.936819	32.17799
2049	6.68919	3.2480698	83.5201	83.0445	6.936628	32.17757
2050	6.69001	3.2480698	83.3103	82.8359	6.936524	32.17689
2051	6.69089	3.2481260	83.0969	82.6237	6.936386	32.17679
2052	6.69177	3.2481572	82.8899	82.4180	6.936261	32.17640
2053	6.69280	3.2481884	82.6737	82.2031	6.936116	32.17588
2054	6.69357	3.2482196	82.4487	81.9794	6.936003	32.17560
2055	6.69455	3.2483134	82.2233	81.7553	6.935833	32.17582
2056	6.69558	3.2484384	82.0042	81.5375	6.935642	32.17633
2057	6.69723	3.2485634	81.7791	81.3137	6.935377	32.17626
2058	6.69899	3.2486259	81.5538	81.0897	6.935130	32.17540
2059	6.70054	3.2486884	81.3376	80.8748	6.934907	32.17474
2060	6.70188	3.2487196	81.1152	80.6538	6.934726	32.17393
2061	6.70327	3.2486882	80.8993	80.4391	6.934569	32.17238
2062	6.70440	3.2486569	80.6799	80.2210	6.934443	32.17107
2063	6.70544	3.2485942	80.4457	79.9882	6.934344	32.16953
2064	6.70667	3.2486254	80.2174	79.7612	6.934175	32.16881
2065	6.70791	3.2485628	80.0013	79.5464	6.934052	32.16707
2066	6.70894	3.2485627	79.7881	79.3345	6.933923	32.16620
2067	6.70987	3.2485626	79.5783	79.1258	6.933807	32.16543
2068	6.71075	3.2485313	79.3591	78.9079	6.933712	32.16436
2069	6.71142	3.2484999	79.1368	78.6869	6.933642	32.16349
2070	6.71204	3.2484686	78.9145	78.4660	6.933578	32.16267
2071	6.71271	3.2484372	78.7014	78.2542	6.933508	32.16180
2072	6.71354	3.2483433	78.4793	78.0333	6.933450	32.16010
2073	6.71446	3.2483119	78.2478	77.8032	6.933349	32.15899
2074	6.71524	3.2482180	78.0167	77.5735	6.933297	32.15735
2075	6.71622	3.2481554	77.7943	77.3524	6.933205	32.15585
2076	6.71730	3.2481052	77.5660	77.1254	6.933095	32.15439
2077	6.71844	3.2479738	77.3441	76.9047	6.933018	32.15199
2078	6.71962	3.2479424	77.1278	76.6898	6.932886	32.15063
2079	6.72081	3.2478485	76.9026	76.4659	6.932785	32.14859
2080	6.72174	3.2478484	76.6653	76.2299	6.932668	32.14783
2081	6.72267	3.2478483	76.4339	75.9999	6.932551	32.14707
2082	6.72370	3.2478795	76.2054	75.7728	6.932406	32.14655
2083	6.72520	3.2478794	75.9772	75.5459	6.932221	32.14526
2084	6.72845	3.2480357	75.7581	75.3281	6.931747	32.14403
2085	6.73387	3.2480982	75.5418	75.1131	6.931059	32.13973
2086	6.74094	3.2482482	75.3255	74.8980	6.930128	32.13485
2087	6.74848	3.2483419	75.1065	74.6803	6.929169	32.12892
2088	6.75525	3.2485607	74.8813	74.4564	6.928242	32.12509
2089	6.76294	3.2488734	74.6651	74.2415	6.927156	32.12141
2090	6.77198	3.2493049	74.4368	74.0145	6.925850	32.11778
2091	6.78206	3.2499242	74.2207	73.7997	6.924328	32.11524
2092	6.79509	3.2504246	74.0019	73.5822	6.922510	32.10863
2093	6.80910	3.2509813	73.7794	73.3610	6.920547	32.10173
2094	6.82394	3.2516946	73.5663	73.1491	6.918407	32.09575
2095	6.83848	3.2521012	73.3443	72.9284	6.916456	32.08672
2096	6.85127	3.2530336	73.1279	72.7133	6.914459	32.08507
2097	6.86530	3.2532838	72.9240	72.5106	6.912647	32.07481
2098	6.87664	3.2536842	72.7108	72.2986	6.911086	32.06870
2099	6.88550	3.2539658	72.4857	72.0748	6.909880	32.06361
2100	6.89307	3.2540908	72.2512	71.8417	6.908907	32.05803
2101	6.90053	3.2541533	72.0017	71.5937	6.907976	32.05188
2102	6.90945	3.2538714	71.7582	71.3516	6.907041	32.04060
2103	6.91930	3.2532828	71.5268	71.1215	6.906143	32.02512
2104	6.92931	3.2530948	71.3047	70.9007	6.905031	32.01385
2105	6.93688	3.2525000	71.0824	70.6797	6.904410	32.00043
2106	6.94165	3.2520367	70.8661	70.4647	6.904060	31.99104
2107	6.94445	3.2518801	70.6440	70.2439	6.903796	31.98683
2108	6.94570	3.2517236	70.4156	70.0168	6.903718	31.98408
2109	6.94653	3.2515045	70.1998	69.8023	6.903721	31.98102
2110	6.94689	3.2514481	69.9834	69.5872	6.903701	31.98017
2111	6.94736	3.2514480	69.7674	69.3724	6.903640	31.97983
2112	6.94783	3.2513227	69.5543	69.1605	6.903641	31.97813
2113	6.94850	3.2511662	69.3349	68.9424	6.903632	31.97590
2114	6.94897	3.2509784	69.1099	68.7187	6.903663	31.97353
2115	6.94944	3.2508532	68.8937	68.5038	6.903664	31.97183
2116	6.94933	3.2506654	68.6713	68.2827	6.903764	31.96998
2117	6.94912	3.2505151	68.4554	68.0680	6.903857	31.96864
2118	6.94855	3.2503586	68.2363	67.8502	6.903998	31.96756
2119	6.94767	3.2503272	68.0138	67.6291	6.904114	31.96815
2120	6.94726	3.2501395	67.7917	67.4082	6.904251	31.96659
2121	6.94705	3.2498578	67.5513	67.1692	6.904408	31.96382
2122	6.94715	3.2491131	67.3109	66.9302	6.904755	31.95573
2123	6.94829	3.2476554	67.0854	66.7060	6.905326	31.93888
2124	6.95167	3.2457913	66.8661	66.4880	6.905827	31.91555
2125	6.95821	3.2446154	66.6471	66.2703	6.905613	31.89678
2126	6.96584	3.2437774	66.4309	66.0553	6.905102	31.88068
2127	6.97311	3.2430644	66.2118	65.8375	6.904573	31.86629
2128	6.98053	3.2424453	65.9836	65.6106	6.903980	31.85279
2129	6.98739	3.2420138	65.7614	65.3897	6.903363	31.84186
2130	6.99383	3.2417324	65.5360	65.1657	6.902723	31.83294
2131	6.99954	3.2413947	65.3139	64.9448	6.902198	31.82409
2132	7.00489	3.2412383	65.0916	64.7238	6.901627	31.81755
2133	7.00890	3.2410819	64.8601	64.4937	6.901219	31.81226
2134	7.01227	3.2408068	64.6409	64.2757	6.900943	31.80625
2135	7.01492	3.2402129	64.4098	64.0460	6.900910	31.79746
2136	7.01737	3.2394440	64.1812	63.8187	6.900986	31.78695
2137	7.01965	3.2386378	63.9593	63.5980	6.901100	31.77618
2138	7.02184	3.2382690	63.7278	63.3679	6.901013	31.77026
2139	7.02350	3.2371817	63.5116	63.1530	6.901338	31.75701
2140	7.02490	3.2361321	63.2893	62.9320	6.901676	31.74441
2141	7.02641	3.2351138	63.0489	62.6930	6.901986	31.73207
2142	7.02776	3.2339707	62.8237	62.4691	6.902375	31.71851
2143	7.02927	3.2329838	62.5923	62.2390	6.902670	31.70651
2144	7.03094	3.2323031	62.3549	62.0030	6.902796	31.69769
2145	7.03276	3.2316848	62.1387	61.7880	6.902874	31.68940
2146	7.03447	3.2310354	61.9012	61.5519	6.902979	31.68088
2147	7.03634	3.2303860	61.6791	61.3311	6.903066	31.67221
2148	7.03858	3.2298366	61.4509	61.1042	6.903059	31.66429
2149	7.04092	3.2288752	61.2193	60.8739	6.903241	31.65181
2150	7.04383	3.2281698	60.9973	60.6532	6.903230	31.64158
2151	7.04690	3.2267219	60.7627	60.4200	6.903560	31.62315
2152	7.05023	3.2253990	60.5313	60.1900	6.903799	31.60585
2153	7.05413	3.2234587	60.2999	59.9598	6.904268	31.58132
2154	7.05907	3.2203839	60.0656	59.7270	6.905163	31.54354
2155	7.06740	3.2177092	59.8282	59.4909	6.905456	31.50703
2156	7.07849	3.2150664	59.6030	59.2670	6.905401	31.46835
2157	7.09119	3.2132904	59.3653	59.0307	6.904728	31.43763
2158	7.10286	3.2110227	59.1401	58.8068	6.904418	31.40255
2159	7.11546	3.2069190	58.9057	58.5738	6.904884	31.34676
2160	7.13021	3.2045347	58.6776	58.3469	6.904257	31.30768
2161	7.14444	3.2016908	58.4371	58.1078	6.903914	31.26413
2162	7.15753	3.1994324	58.1964	57.8685	6.903423	31.22799
2163	7.16911	3.1985490	57.9590	57.6325	6.902448	31.20809
2164	7.17730	3.1972056	57.7124	57.3874	6.902105	31.18629
2165	7.18388	3.1964718	57.4564	57.1328	6.901661	31.17255
2166	7.18925	3.1961359	57.2131	56.8910	6.901170	31.16418
2167	7.19312	3.1958373	56.9667	56.6460	6.900843	31.15759
2168	7.19578	3.1956507	56.7261	56.4067	6.900607	31.15328
2169	7.19792	3.1955014	56.4824	56.1644	6.900416	31.14985
2170	7.19933	3.1952527	56.2361	55.9195	6.900361	31.14601
2171	7.20084	3.1951966	55.9894	55.6743	6.900200	31.14415
2172	7.20183	3.1951033	55.7338	55.4202	6.900121	31.14237
2173	7.20230	3.1949478	55.4870	55.1748	6.900134	31.14038
2174	7.20304	3.1948917	55.2346	54.9238	6.900068	31.13923
2175	7.20366	3.1947673	54.9788	54.6694	6.900047	31.13744
2176	7.20455	3.1946554	54.7321	54.4242	6.899989	31.13554
2177	7.20549	3.1945247	54.4823	54.1759	6.899934	31.13340
2178	7.20627	3.1944003	54.2176	53.9126	6.899894	31.13147
2179	7.20747	3.1942821	53.9682	53.6647	6.899801	31.12923
2180	7.20847	3.1941577	53.7031	53.4011	6.899736	31.12711
2181	7.20993	3.1940333	53.4536	53.1531	6.899614	31.12457
2182	7.21123	3.1937908	53.1887	52.8896	6.899569	31.12089
2183	7.21275	3.1935794	52.9270	52.6295	6.899483	31.11737
2184	7.21421	3.1933990	52.6681	52.3720	6.899388	31.11422
2185	7.21562	3.1931752	52.4096	52.1150	6.899321	31.11066
2186	7.21687	3.1930010	52.1537	51.8606	6.899248	31.10777
2187	7.21781	3.1928207	51.8950	51.6034	6.899217	31.10509
2188	7.21881	3.1928455	51.6360	51.3459	6.899080	31.10459
2189	7.21943	3.1927895	51.3743	51.0857	6.899026	31.10354
2190	7.22006	3.1927272	51.1153	50.8282	6.898975	31.10242
2191	7.22048	3.1927272	50.8567	50.5711	6.898919	31.10216
2192	7.22095	3.1926960	50.6011	50.3169	6.898872	31.10151
2193	7.22131	3.1926276	50.3483	50.0656	6.898856	31.10056
2194	7.22142	3.1925715	50.1049	49.8236	6.898866	31.09997
2195	7.22189	3.1924534	49.8461	49.5663	6.898861	31.09839
2196	7.22278	3.1922979	49.5841	49.3058	6.898823	31.09604
2197	7.22366	3.1921798	49.3193	49.0425	6.898768	31.09408
2198	7.22497	3.1919932	49.0574	48.7821	6.898695	31.09102
2199	7.22649	3.1918751	48.7834	48.5097	6.898564	31.08850
2200	7.22826	3.1917817	48.5156	48.2434	6.898389	31.08602
2201	7.22962	3.1916014	48.2539	47.9832	6.898307	31.08298
2202	7.23119	3.1913714	47.9951	47.7259	6.898223	31.07920
2203	7.23302	3.1911725	47.7364	47.4687	6.898093	31.07553
2204	7.23438	3.1910233	47.4747	47.2084	6.897996	31.07282
2205	7.23568	3.1908678	47.2190	46.9542	6.897908	31.07009
2206	7.23694	3.1907745	46.9631	46.6998	6.897797	31.06807
2207	7.23782	3.1906253	46.7164	46.4545	6.897756	31.06578
2208	7.23845	3.1905010	46.4670	46.2065	6.897736	31.06399
2209	7.23944	3.1901095	46.2142	45.9552	6.897799	31.05899
2210	7.24159	3.1898671	45.9614	45.7038	6.897653	31.05457
2211	7.24404	3.1895626	45.7148	45.4586	6.897498	31.04919
2212	7.24671	3.1890158	45.4591	45.2044	6.897435	31.04102
2213	7.25026	3.1878603	45.2127	44.9593	6.897557	31.02549
2214	7.25554	3.1867919	44.9721	44.7201	6.897430	31.00936
2215	7.26182	3.1855497	44.7225	44.4720	6.897265	30.99047
2216	7.26909	3.1847610	44.4848	44.2356	6.896763	30.97557
2217	7.27594	3.1837861	44.2443	43.9965	6.896400	30.95905
2218	7.28258	3.1830969	43.9978	43.7515	6.895924	30.94580
2219	7.28896	3.1826063	43.7694	43.5244	6.895385	30.93492
2220	7.29462	3.1823331	43.5291	43.2854	6.894830	30.92704
2221	7.29886	3.1821778	43.2884	43.0461	6.894388	30.92169
2222	7.30200	3.1820597	43.0481	42.8071	6.894061	30.91772
2223	7.30498	3.1817245	42.8043	42.5648	6.893857	30.91156
2224	7.31021	3.1811471	42.5548	42.3166	6.893497	30.90079
2225	7.31639	3.1798996	42.3233	42.0865	6.893346	30.88197
2226	7.32524	3.1774239	42.0859	41.8505	6.893461	30.84759
2227	7.33755	3.1767600	41.8546	41.6204	6.892289	30.82960
2228	7.34745	3.1756061	41.6109	41.3782	6.891642	30.80850
2229	7.35657	3.1742168	41.3706	41.1392	6.891202	30.78559
2230	7.36580	3.1732183	41.1453	40.9152	6.890562	30.76678
2231	7.37471	3.1718169	40.9077	40.6789	6.890152	30.74394
2232	7.38467	3.1710729	40.6672	40.4398	6.889300	30.72723
2233	7.39333	3.1699260	40.4328	40.2067	6.888799	30.70737
2234	7.40099	3.1692317	40.1739	39.9493	6.888201	30.69326
2235	7.40760	3.1686243	39.9214	39.6983	6.887688	30.68102
2236	7.41290	3.1681408	39.6626	39.4409	6.887274	30.67126
2237	7.41699	3.1676078	39.4099	39.1896	6.887029	30.66205
2238	7.42009	3.1670252	39.1601	38.9413	6.886928	30.65318
2239	7.42245	3.1666038	38.9107	38.6933	6.886839	30.64669
2240	7.42450	3.1661515	38.6610	38.4450	6.886803	30.64015
2241	7.42613	3.1653956	38.4142	38.1997	6.886962	30.63073
2242	7.42770	3.1648566	38.1617	37.9486	6.887024	30.62368
2243	7.42901	3.1637603	37.9119	37.7002	6.887384	30.61089
2244	7.43027	3.1633204	37.6623	37.4520	6.887437	30.60518
2245	7.43122	3.1625029	37.4250	37.2161	6.887708	30.59570
2246	7.43174	3.1616050	37.1693	36.9618	6.888068	30.58574
2247	7.43206	3.1606700	36.9166	36.7105	6.888471	30.57556
2248	7.43253	3.1596609	36.6729	36.4682	6.888891	30.56445
2249	7.43379	3.1594379	36.3959	36.1928	6.888839	30.56108
2250	7.43521	3.1588622	36.1370	35.9353	6.888937	30.55378
2251	7.43679	3.1581751	35.8813	35.6810	6.889070	30.54516
2252	7.43852	3.1574199	35.6378	35.4389	6.889216	30.53566
2253	7.44135	3.1570238	35.4126	35.2150	6.889057	30.52902
2254	7.44472	3.1566091	35.1874	34.9911	6.888844	30.52173
2255	7.44986	3.1563367	34.9742	34.7791	6.888347	30.51438
2256	7.45606	3.1561571	34.7641	34.5702	6.887679	30.50710
2257	7.46116	3.1559466	34.5723	34.3795	6.887159	30.50046
2258	7.46526	3.1556310	34.3805	34.1888	6.886811	30.49357
2259	7.46920	3.1551978	34.1856	33.9950	6.886537	30.48556
2260	7.47372	3.1550739	33.9907	33.8012	6.886045	30.48035
2261	7.47745	3.1547150	33.8020	33.6136	6.885761	30.47332
2262	7.48045	3.1546283	33.6013	33.4140	6.885436	30.46986
2263	7.48276	3.1543313	33.4061	33.2199	6.885294	30.46474
2264	7.48450	3.1538734	33.2084	33.0233	6.885299	30.45841
2265	7.48565	3.1534527	33.0135	32.8295	6.885355	30.45299
2266	7.48634	3.1526424	32.8216	32.6387	6.885654	30.44381
2267	7.48676	3.1513807	32.6269	32.4451	6.886200	30.43005
2268	7.48707	3.1503046	32.4442	32.2634	6.886670	30.41836
2269	7.48744	3.1498532	32.2554	32.0757	6.886837	30.41330
2270	7.48791	3.1491978	32.0667	31.8880	6.887088	30.40597
2271	7.48844	3.1483879	31.8718	31.6942	6.887406	30.39694
2272	7.48954	3.1472072	31.6739	31.4975	6.887830	30.38345
2273	7.49133	3.1467064	31.4701	31.2949	6.887848	30.37663
2274	7.49312	3.1459276	31.2811	31.1069	6.887998	30.36683
2275	7.49512	3.1450933	31.0743	30.9013	6.888149	30.35627
2276	7.49743	3.1432273	30.8703	30.6984	6.888753	30.33441
2277	7.50101	3.1422511	30.6785	30.5077	6.888780	30.32095
2278	7.50474	3.1409353	30.4835	30.3138	6.888950	30.30373
2279	7.50869	3.1384589	30.2887	30.1201	6.889645	30.27395
2280	7.51369	3.1371747	30.0971	29.9295	6.889646	30.25598
2281	7.51842	3.1349956	29.9050	29.7386	6.890104	30.22870
2282	7.52326	3.1324037	29.7165	29.5511	6.890745	30.19693
2283	7.52852	3.1307071	29.5245	29.3602	6.890908	30.17435
2284	7.53389	3.1287456	29.3266	29.1635	6.891185	30.14887
2285	7.53895	3.1274320	29.1348	28.9727	6.891191	30.13057
2286	7.54321	3.1260323	28.9308	28.7698	6.891334	30.11205
2287	7.54690	3.1254095	28.7361	28.5762	6.891178	30.10231
2288	7.54953	3.1248177	28.5320	28.3733	6.891135	30.09382
2289	7.55132	3.1236280	28.3309	28.1734	6.891479	30.07969
2290	7.55316	3.1230054	28.1301	27.9736	6.891546	30.07155
2291	7.55453	3.1210889	27.9230	27.7677	6.892285	30.05005
2292	7.55590	3.1181381	27.7283	27.5741	6.893515	30.01753
2293	7.55817	3.1158902	27.5365	27.3834	6.894302	29.99173
2294	7.56012	3.1145541	27.3508	27.1987	6.894696	29.97591
2295	7.56175	3.1116794	27.1557	27.0047	6.895857	29.94400
2296	7.56386	3.1088796	26.9337	26.7839	6.896924	29.91249
2297	7.56602	3.1058655	26.7235	26.5750	6.898087	29.87866
2298	7.56923	3.1033258	26.5287	26.3813	6.898896	29.84897
2299	7.57250	3.1000310	26.3339	26.1876	6.900056	29.81122
2300	7.57634	3.0994410	26.1389	25.9936	6.899863	29.80174
2301	7.57924	3.0981382	25.9379	25.7937	6.900123	29.78549
2302	7.58182	3.0970876	25.7432	25.6002	6.900302	29.77220
2303	7.58351	3.0959326	25.5423	25.4004	6.900640	29.75857
2304	7.58441	3.0951463	25.3411	25.2004	6.900899	29.74953
2305	7.58472	3.0943540	25.1494	25.0097	6.901232	29.74093
2306	7.58420	3.0932363	24.9485	24.8099	6.901823	29.72959
2307	7.58304	3.0915355	24.7475	24.6101	6.902767	29.71259
2308	7.58093	3.0904796	24.5528	24.4164	6.903521	29.70326
2309	7.57819	3.0893932	24.3517	24.2165	6.904368	29.69414
2310	7.57545	3.0879264	24.1478	24.0138	6.905394	29.68099
2311	7.57213	3.0868157	23.9499	23.8169	6.906324	29.67210
2312	7.56812	3.0853065	23.7429	23.6111	6.907526	29.65957
2313	7.56401	3.0840306	23.5389	23.4082	6.908630	29.64960
2314	7.55991	3.0834234	23.3440	23.2145	6.909418	29.64674
2315	7.55611	3.0824789	23.1341	23.0057	6.910327	29.64002
2316	7.55311	3.0819270	22.9270	22.7998	6.910953	29.63681
2317	7.55027	3.0812647	22.7200	22.5939	6.911612	29.63228
2318	7.54785	3.0802898	22.5068	22.3820	6.912368	29.62407
2319	7.54479	3.0769431	22.2967	22.1730	6.914328	29.59119
2320	7.53763	3.0730465	22.0897	21.9671	6.917055	29.55595
2321	7.52631	3.0702784	21.8795	21.7582	6.919758	29.53624
2322	7.51369	3.0677132	21.6756	21.5554	6.922528	29.51978
2323	7.50117	3.0645798	21.4502	21.3313	6.925557	29.49719
2324	7.48760	3.0621633	21.2310	21.1133	6.928375	29.48309
2325	7.47472	3.0609156	20.9966	20.8802	6.930553	29.48085
2326	7.46473	3.0601695	20.7775	20.6624	6.932137	29.48148
2327	7.45795	3.0597536	20.5551	20.4411	6.933167	29.48291
2328	7.45438	3.0594111	20.3268	20.2141	6.933767	29.48239
2329	7.45391	3.0594355	20.0924	19.9810	6.933809	29.48316
2330	7.45611	3.0595822	19.8640	19.7539	6.933463	29.48294
2331	7.46084	3.0598634	19.6326	19.5238	6.932740	29.48202
2332	7.46878	3.0594658	19.3982	19.2907	6.931947	29.47115
2333	7.48039	3.0587624	19.1608	19.0547	6.930845	29.45391
2334	7.49059	3.0574966	18.9201	18.8153	6.930187	29.43190
2335	7.49796	3.0553631	18.6766	18.5731	6.930291	29.40308
2336	7.50285	3.0532363	18.4330	18.3309	6.930696	29.37643
2337	7.50469	3.0516721	18.1802	18.0796	6.931210	29.35835
2338	7.50469	3.0502610	17.9457	17.8464	6.931878	29.34345
2339	7.50364	3.0485814	17.7145	17.6164	6.932804	29.32659
2340	7.50180	3.0469693	17.4681	17.3714	6.933795	29.31111
2341	7.49953	3.0457482	17.2274	17.1321	6.934652	29.30015
2342	7.49748	3.0445578	16.9961	16.9020	6.935468	29.28932
2343	7.49606	3.0430381	16.7647	16.6720	6.936364	29.27447
2344	7.49543	3.0426414	16.5423	16.4507	6.936627	29.27088
2345	7.49543	3.0417992	16.3019	16.2117	6.937024	29.26203
2346	7.49538	3.0407558	16.0643	15.9755	6.937524	29.25109
2347	7.49585	3.0397248	15.8179	15.7304	6.937952	29.23984
2348	7.49617	3.0387487	15.5559	15.4699	6.938373	29.22931
2349	7.49601	3.0377667	15.3062	15.2216	6.938856	29.21912
2350	7.49454	3.0354373	15.0473	14.9641	6.940145	29.19571
2351	7.48986	3.0334500	14.7977	14.7159	6.941668	29.17864
2352	7.48297	3.0317983	14.5602	14.4797	6.943306	29.16697
2353	7.47393	3.0290565	14.3349	14.2556	6.945732	29.14552
2354	7.46105	3.0272230	14.1036	14.0256	6.948202	29.13694
2355	7.44745	3.0247568	13.8813	13.8046	6.951067	29.12223
2356	7.43222	3.0235392	13.6651	13.5895	6.953539	29.12215
2357	7.41867	3.0213540	13.4400	13.3657	6.956267	29.11036
2358	7.40560	3.0195223	13.2024	13.1295	6.958767	29.10194
2359	7.39301	3.0184029	12.9558	12.8843	6.960868	29.10069
2360	7.38389	3.0176911	12.7090	12.6388	6.962342	29.10088
2361	7.37943	3.0165353	12.4593	12.3905	6.963448	29.09241
2362	7.37833	3.0158662	12.1946	12.1273	6.963902	29.08632
2363	7.38000	3.0154525	11.9357	11.8698	6.963886	29.08062
2364	7.38410	3.0152396	11.6861	11.6216	6.963473	29.07503
2365	7.38971	3.0152394	11.4396	11.3765	6.962769	29.07042
2366	7.39763	3.0159204	11.2049	11.1430	6.961450	29.07113
2367	7.41132	3.0165954	10.9798	10.9192	6.959415	29.06693
2368	7.42754	3.0167168	10.7850	10.7254	6.957332	29.05472
2369	7.44219	3.0170329	10.5839	10.5255	6.955353	29.04590
2370	7.45585	3.0170145	10.4164	10.3589	6.953658	29.03435
2371	7.46725	3.0171177	10.2428	10.1863	6.952187	29.02598
2372	7.47677	3.0164728	10.0785	10.0229	6.951308	29.01125
2373	7.48344	3.0150070	9.9291	9.8743	6.951174	28.99017
2374	7.48628	3.0130368	9.8074	9.7533	6.951759	28.96693
2375	7.48544	3.0111583	9.7070	9.6535	6.952759	28.94773
2376	7.48129	3.0092499	9.6431	9.5899	6.954187	28.93096
2377	7.47393	3.0072327	9.5973	9.5444	6.956067	28.91569
2378	7.46447	3.0043292	9.5547	9.5020	6.958633	28.89276
2379	7.45133	3.0000670	9.5367	9.4841	6.962311	28.85842
2380	7.43216	2.9970570	9.5151	9.4626	6.966148	28.84239
2381	7.41201	2.9954858	9.5060	9.4536	6.969422	28.84246
2382	7.39443	2.9920470	9.4999	9.4475	6.973273	28.82051
2383	7.37434	2.9901252	9.4969	9.4445	6.976714	28.81676
2384	7.35689	2.9896889	9.5060	9.4536	6.979114	28.82663
2385	7.34536	2.9889919	9.5061	9.4536	6.980896	28.82880
2386	7.33724	2.9885555	9.4968	9.4444	6.982125	28.83091
2387	7.33137	2.9882889	9.4692	9.4169	6.982990	28.83297
2388	7.32713	2.9880586	9.4329	9.3808	6.983633	28.83406
2389	7.32467	2.9889739	9.3870	9.3353	6.983500	28.84588
2390	7.32561	2.9895436	9.3443	9.2928	6.983106	28.85119
2391	7.32781	2.9888768	9.3017	9.2504	6.983151	28.84227
2392	7.32776	2.9886162	9.2592	9.2082	6.983282	28.83955
2393	7.32707	2.9892466	9.2257	9.1748	6.983063	28.84685
2394	7.32796	2.9896042	9.1953	9.1446	6.982779	28.84993
2395	7.32995	2.9897800	9.1526	9.1021	6.982443	28.85017
2396	7.33153	2.9890222	9.1008	9.0506	6.982610	28.84081
2397	7.33048	2.9886767	9.0307	8.9809	6.982907	28.83803
2398	7.32838	2.9885555	8.9578	8.9084	6.983227	28.83851
2399	7.32671	2.9883978	8.8603	8.8115	6.983511	28.83827
2400	7.32545	2.9881675	8.7506	8.7024	6.983778	28.83691
2401	7.32398	2.9881190	8.6442	8.5965	6.983983	28.83766
2402	7.32299	2.9876947	8.5223	8.4753	6.984311	28.83402
2403	7.32079	2.9864706	8.3914	8.3451	6.985174	28.82286
2404	7.31655	2.9862827	8.2483	8.2028	6.985795	28.82445
2405	7.31267	2.9857858	8.1113	8.0666	6.986519	28.82244
2406	7.30922	2.9853678	7.9651	7.9211	6.987152	28.82092
2407	7.30582	2.9841379	7.8220	7.7788	6.988171	28.81070
2408	7.30063	2.9831021	7.6789	7.6366	6.989320	28.80403
2409	7.29514	2.9814305	7.5327	7.4912	6.990815	28.79085
2410	7.28944	2.9811398	7.3987	7.3579	6.991671	28.79255
2411	7.28546	2.9805161	7.2557	7.2157	6.992470	28.78927
2412	7.28274	2.9806675	7.1125	7.0733	6.992737	28.79320
2413	7.28394	2.9814668	6.9573	6.9190	6.992196	28.80079
2414	7.29158	2.9816786	6.8111	6.7736	6.991129	28.79676
2415	7.30268	2.9811758	6.6556	6.6190	6.989973	28.78224
2416	7.31362	2.9804248	6.4975	6.4617	6.988955	28.76521
2417	7.32252	2.9805458	6.3451	6.3101	6.987774	28.75917
2418	7.33095	2.9802429	6.1808	6.1467	6.986856	28.74901
2419	7.33896	2.9798311	6.0162	5.9831	6.986043	28.73805
2420	7.34661	2.9784990	5.8551	5.8229	6.985719	28.71759
2421	7.35243	2.9774215	5.6906	5.6592	6.985503	28.70138
2422	7.35626	2.9761443	5.5353	5.5048	6.985634	28.68468
2423	7.35793	2.9730706	5.3831	5.3534	6.986899	28.65066
2424	7.35489	2.9710140	5.2278	5.1990	6.988268	28.63136
2425	7.34902	2.9706269	5.0787	5.0507	6.989191	28.63216
2426	7.34473	2.9700645	4.9355	4.9083	6.990001	28.62979
2427	7.34132	2.9676944	4.7955	4.7691	6.991569	28.60744
2428	7.33519	2.9646783	4.6584	4.6327	6.993792	28.58047
2429	7.32535	2.9624669	4.5062	4.4814	6.996098	28.56512
2430	7.31508	2.9616635	4.3600	4.3360	6.997779	28.56510
2431	7.30854	2.9616092	4.1894	4.1664	6.998629	28.56999
2432	7.30440	2.9590664	4.0342	4.0120	7.000376	28.54639
2433	7.29854	2.9555647	3.8789	3.8575	7.002805	28.51401
2434	7.28959	2.9518474	3.7146	3.6941	7.005731	28.48186
2435	7.27688	2.9326188	3.5410	3.5215	7.016638	28.28767
2436	7.27097	2.9082215	3.3888	3.3701	7.029196	28.03304
2437	7.28525	2.9087553	3.2364	3.2186	7.027109	28.02721
2438	7.29613	2.9013424	3.0966	3.0796	7.029300	27.93972
2439	7.30702	2.8887878	2.9503	2.9340	7.033973	27.79775
2440	7.32205	2.8761519	2.8223	2.8068	7.038148	27.65177
2441	7.34583	2.8514540	2.6824	2.6677	7.047009	27.37141
2442	7.38509	2.8495241	2.5453	2.5313	7.042869	27.32009
2443	7.41652	2.8453984	2.3869	2.3738	7.040796	27.25186
2444	7.43799	2.8405969	2.2257	2.2135	7.040329	27.18443
2445	7.45538	2.8349663	2.0551	2.0438	7.040785	27.11154
2446	7.47193	2.8329100	1.8998	1.8894	7.039630	27.07703
2447	7.48502	2.8306642	1.7384	1.7289	7.039013	27.04325
2448	7.49564	2.8270712	1.5953	1.5866	7.039359	26.99724
2449	7.50501	2.8251596	1.4398	1.4319	7.039061	26.96992
2450	7.51290	2.8233968	1.2938	1.2867	7.038882	26.94532
2451	7.51942	2.8229219	1.1536	1.1472	7.038263	26.93532
2452	7.52316	2.8223344	1.0137	1.0082	7.038059	26.92631
2453	7.52558	2.8214088	0.8736	0.8688	7.038186	26.91476
2454	7.52784	2.8193385	0.7212	0.7172	7.038881	26.89131
2455	7.53084	2.8162370	0.5600	0.5569	7.039973	26.85647
2456	7.53532	2.8122124	0.3711	0.3691	7.041315	26.81082
2457	7.54179	2.8064311	0.2008	0.1996	7.043236	26.74520
2458	7.54953	2.8043352	0.1399	0.1392	7.043233	26.71728
2459	7.55532	2.8062000	0.1428	0.1420	7.041591	26.73240
2460	7.55727	2.8109323	0.1429	0.1421	7.039079	26.78056
2461	7.55369	2.8144168	0.1430	0.1422	7.037878	26.81989
2462	7.54711	2.8172388	0.1458	0.1450	7.037381	26.85460
2463	7.53968	2.8188637	0.1398	0.1390	7.037565	26.87740
2464	7.53289	2.8219425	0.1459	0.1451	7.036971	26.91500
2465	7.52816	2.8238473	0.1490	0.1482	7.036673	26.93868
2466	7.52405	2.8250225	0.1427	0.1419	7.036641	26.95422
2467	7.52021	2.8272072	0.1396	0.1389	7.036093	26.98017
2468	7.51653	2.5099717	0.1397	0.1389	7.188819	23.67304
2469	7.51248	0.6076709	0.1428	0.1420	8.107009	5.10194
2470	7.50890	0.5658890	0.1399	0.1391	8.127343	4.72811
2471	7.50779	0.5020295	0.1428	0.1420	8.157452	4.16054
2472	7.50727	0.4555334	0.1428	0.1420	8.179200	3.75087
2473	7.50700	0.4184054	0.1456	0.1448	8.196451	3.42610
2474	7.50648	0.4029754	0.1427	0.1419	8.203679	3.29182
2475	7.50558	0.3852876	0.1396	0.1389	8.212003	3.13840
2476	7.50474	0.3542005	0.1428	0.1420	8.226440	2.87001
2477	7.50374	0.3312507	0.1456	0.1448	8.237130	2.67302
2478	7.50243	0.3438273	0.1396	0.1389	8.231645	2.78100
2479	7.50132	0.3336836	0.1425	0.1417	8.236498	2.69405
2480	7.49854	0.3563111	0.1364	0.1357	8.226698	2.88869
2481	7.49612	0.3502224	0.1335	0.1328	8.229965	2.83648
2482	7.49475	0.3306393	0.1425	0.1417	8.239190	2.66847
2483	7.49359	0.3322760	0.1456	0.1448	8.238672	2.68259
2484	7.49238	0.3218292	0.1456	0.1448	8.243678	2.59326
2485	7.49102	0.3182420	0.1425	0.1417	8.245584	2.56270
2486	7.48923	0.3010509	0.1456	0.1448	8.253761	2.41627
2487	7.48791	0.2840518	0.1363	0.1355	8.261732	2.27203
2488	7.48676	0.2748447	0.1425	0.1417	8.266128	2.19418
2489	7.48513	0.2767945	0.1396	0.1388	8.265572	2.21077
2490	7.48397	0.2557768	0.1393	0.1386	8.275287	2.03358
2491	7.48292	0.2351926	0.1485	0.1477	8.284743	1.86102
2492	7.48250	0.2145384	0.1485	0.1477	8.294059	1.68888
2493	7.48197	0.2184784	0.1425	0.1417	8.292408	1.72166
2494	7.48124	0.2127803	0.1425	0.1417	8.295097	1.67434
2495	7.48024	0.1979425	0.1424	0.1416	8.301897	1.55146
2496	7.47855	0.1946552	0.1425	0.1417	8.303695	1.52438
2497	7.47656	0.2020585	0.1394	0.1386	8.300812	1.58567
2498	7.47503	0.1969145	0.1393	0.1386	8.303404	1.54320
2499	7.47403	0.1940446	0.1454	0.1446	8.304879	1.51954
2500	7.47325	0.1976233	0.1393	0.1386	8.303450	1.54913
2501	7.47204	0.1922873	0.1423	0.1415	8.306061	1.50512
2502	7.47120	0.2158950	0.1393	0.1386	8.295730	1.70071
2503	7.46951	0.2535232	0.1391	0.1383	8.279197	2.01546
2504	7.46810	0.2665873	0.1392	0.1384	8.273589	2.12560
2505	7.46626	0.2710844	0.1453	0.1445	8.271924	2.16368
2506	7.46410	0.2710533	0.1391	0.1383	8.272369	2.16355
2507	7.46111	0.2527095	0.1451	0.1443	8.281249	2.00911
2508	7.45895	0.2415767	0.1423	0.1415	8.286691	1.91576
2509	7.45690	0.2328376	0.1452	0.1444	8.291027	1.84271
2510	7.45533	0.2144065	0.1361	0.1353	8.299592	1.68910
2511	7.45344	0.2072838	0.1423	0.1415	8.303151	1.63003
2512	7.45149	0.2011769	0.1421	0.1413	8.306263	1.57950
2513	7.45102	0.2196304	0.1392	0.1384	8.298126	1.73278
2514	7.45107	0.2652038	0.1421	0.1414	8.277622	2.11496
2515	7.44955	0.2725679	0.1452	0.1444	8.274595	2.17726
2516	7.44808	0.2542616	0.1390	0.1382	8.283162	2.02291
2517	7.44671	0.2322722	0.1392	0.1384	8.293330	1.83851
2518	7.44529	0.2136964	0.1421	0.1414	8.301933	1.68368
2519	7.44382	0.1924885	0.1418	0.1411	8.311676	1.50800
2520	7.44230	0.1885690	0.1482	0.1474	8.313724	1.47572
2521	7.44078	0.1848963	0.1391	0.1383	8.315661	1.44552
2522	7.43915	0.1740940	0.1358	0.1351	8.320770	1.35678
2523	7.43752	0.1534331	0.1390	0.1383	8.330197	1.18800
2524	7.43589	0.1434001	0.1419	0.1411	8.334922	1.10657
2525	7.43505	0.1370603	0.1450	0.1442	8.337861	1.05528
2526	7.43395	0.1328235	0.1389	0.1381	8.339932	1.02111
2527	7.43211	0.1301654	0.1420	0.1412	8.341464	0.99973
