Scan Count	Temperature [ITS-90, deg C]	Conductivity [S/m]	Pressure, Strain Gauge [db]	Depth [salt water, m]	Oxygen Saturation, Weiss [ml/l]	Salinity, Practical [PSU]
1	16.86382	0.0011509	0.0379	0.0377	6.772008	0.01261
2	16.85738	0.0011447	0.0349	0.0347	6.772926	0.01258
3	16.85976	0.0011293	0.0378	0.0376	6.772591	0.01251
4	16.83929	0.0013730	0.0379	0.0377	6.775460	0.01362
5	16.80780	0.0025606	0.0379	0.0377	6.779715	0.01932
6	16.79677	0.0029402	0.0408	0.0406	6.781211	0.02121
7	16.79758	0.0032427	0.0408	0.0406	6.781032	0.02273
8	16.78560	0.0029217	0.0378	0.0376	6.782807	0.02112
9	16.75538	0.0027118	0.0378	0.0376	6.787167	0.02007
10	16.73936	0.0024064	0.0378	0.0376	6.789518	0.01855
11	16.76045	0.0021996	0.0408	0.0406	6.786546	0.01754
12	16.76559	0.0020176	0.0378	0.0376	6.785849	0.01665
13	15.75139	0.9628680	0.1717	0.1708	6.656816	6.70346
14	10.11361	3.1738332	0.7894	0.7851	6.568105	28.49373
15	8.86467	3.2124785	0.8716	0.8669	6.694581	29.90088
16	8.74973	3.2438356	0.8747	0.8699	6.693969	30.32224
17	8.81741	3.2779119	0.8686	0.8638	6.671102	30.61670
18	8.77036	3.2574372	0.8656	0.8608	6.685560	30.44533
19	8.73330	3.2636264	0.8929	0.8880	6.687071	30.54133
20	8.67421	3.2539074	0.8686	0.8638	6.698192	30.49147
21	8.64460	3.2562927	0.8686	0.8638	6.700541	30.54178
22	8.65797	3.2628878	0.8778	0.8729	6.696058	30.59872
23	8.63632	3.2542521	0.8716	0.8668	6.702406	30.52773
24	8.63048	3.2523120	0.8838	0.8790	6.703947	30.51261
25	8.64546	3.2603006	0.8869	0.8821	6.698652	30.58266
26	8.64730	3.2517611	0.8686	0.8638	6.702252	30.49238
27	8.70456	3.2671490	0.8778	0.8729	6.688805	30.60267
28	8.73541	3.2850335	0.8747	0.8699	6.677321	30.76147
29	8.81284	3.3211107	0.8839	0.8791	6.652528	31.06807
30	8.86489	3.3341407	0.8839	0.8790	6.640893	31.15746
31	8.90911	3.3278308	0.8688	0.8640	6.638678	31.05341
32	8.94192	3.3510698	0.8688	0.8640	6.624780	31.26499
33	9.00622	3.3644430	0.8718	0.8670	6.611721	31.34662
34	9.06733	3.3778050	0.8810	0.8761	6.599073	31.43068
35	9.10203	3.3787127	0.8749	0.8701	6.594815	31.40943
36	9.14652	3.3856752	0.8902	0.8853	6.586849	31.44194
37	9.18392	3.3954108	0.8811	0.8763	6.578486	31.50917
38	9.24641	3.3769649	0.8508	0.8461	6.579529	31.26459
39	9.28463	3.3981779	0.8873	0.8824	6.566160	31.44880
40	9.60551	3.3966597	0.8813	0.8765	6.531502	31.15289
41	9.66013	3.3854916	0.8723	0.8675	6.530228	30.99218
42	9.82083	3.3979492	0.9028	0.8978	6.507404	30.98004
43	10.25077	3.3847162	0.8664	0.8616	6.466119	30.48181
44	10.40446	3.3924646	0.8695	0.8647	6.446343	30.43024
45	10.42576	3.3984008	0.8909	0.8860	6.441639	30.47143
46	10.42292	3.3982290	0.8849	0.8801	6.442014	30.47210
47	10.43312	3.4022205	0.8911	0.8862	6.439297	30.50324
48	10.46261	3.4015389	0.8852	0.8803	6.436402	30.47178
49	10.46329	3.4010486	0.8731	0.8683	6.436527	30.46634
50	10.48894	3.4062898	0.8823	0.8775	6.431651	30.49693
51	10.50126	3.4042831	0.8886	0.8837	6.431139	30.46670
52	10.51398	3.4079078	0.8917	0.8868	6.428311	30.49203
53	10.51068	3.3968533	0.8767	0.8718	6.433126	30.38513
54	10.47293	3.4042707	0.9012	0.8962	6.434187	30.49027
55	10.56081	3.4002453	0.8770	0.8722	6.426374	30.37699
56	10.52170	3.3929658	0.8741	0.8693	6.433510	30.33741
57	10.65476	3.3949365	0.8955	0.8906	6.418428	30.24646
58	10.79819	3.3813808	0.8653	0.8605	6.408466	29.99479
59	10.82114	3.3904884	0.8929	0.8880	6.402388	30.06550
60	10.78943	3.3907750	0.9053	0.9003	6.405666	30.09435
61	10.76472	3.3899168	0.8750	0.8702	6.408652	30.10623
62	10.74712	3.3900568	0.8782	0.8734	6.410481	30.12210
63	10.75426	3.3913095	0.8906	0.8857	6.409217	30.12855
64	10.76427	3.3866490	0.8755	0.8707	6.410003	30.07444
65	10.73095	3.3861663	0.8970	0.8921	6.413767	30.09707
66	10.74557	3.3890332	0.9034	0.8984	6.411055	30.11327
67	10.75575	3.3823659	0.8793	0.8744	6.412624	30.03927
68	10.72563	3.3844377	0.8856	0.8807	6.415027	30.08441
69	10.76867	3.3841957	0.8858	0.8809	6.410509	30.04667
70	10.75638	3.3786374	0.8738	0.8690	6.414043	30.00205
71	10.75843	3.3820101	0.9045	0.8995	6.412478	30.03355
72	10.77599	3.3787832	0.8987	0.8937	6.411881	29.98741
73	10.76009	3.3765483	0.8745	0.8697	6.414477	29.97845
74	10.76958	3.3785356	0.8839	0.8790	6.412666	29.99022
75	10.77141	3.3768593	0.8841	0.8792	6.413138	29.97223
76	10.76827	3.3753420	0.8905	0.8856	6.414080	29.95988
77	10.76398	3.3766943	0.9059	0.9009	6.414002	29.97669
78	10.77233	3.3718067	0.8909	0.8861	6.415053	29.92178
79	10.75220	3.3718450	0.8912	0.8863	6.417200	29.93861
80	10.74214	3.3686285	0.8823	0.8775	6.419565	29.91519
81	10.72849	3.3680007	0.8826	0.8778	6.421284	29.92017
82	10.72118	3.3687049	0.8951	0.8901	6.421790	29.93308
83	10.72603	3.3655147	0.8984	0.8934	6.422542	29.89770
84	10.71170	3.3661554	0.9017	0.8967	6.423829	29.91573
85	10.70285	3.3608873	0.8836	0.8787	6.426889	29.87108
86	10.68191	3.3621869	0.8900	0.8851	6.428627	29.90100
87	10.67877	3.3592083	0.8842	0.8793	6.430158	29.87421
88	10.66862	3.3582897	0.8967	0.8918	6.431622	29.87345
89	10.67130	3.3587205	0.9091	0.9041	6.431160	29.87550
90	10.67791	3.3561991	0.8972	0.8923	6.431456	29.84525
91	10.66405	3.3548818	0.8915	0.8866	6.433480	29.84359
92	10.66149	3.3547678	0.8856	0.8808	6.433803	29.84456
93	10.65134	3.3516210	0.8859	0.8811	6.436162	29.82182
94	10.63726	3.3524568	0.9045	0.8995	6.437349	29.84155
95	10.63817	3.3489499	0.9047	0.8998	6.438658	29.80622
96	10.61265	3.3483490	0.8990	0.8940	6.441662	29.82112
97	10.61738	3.3468176	0.8931	0.8882	6.441766	29.80216
98	10.60741	3.3452424	0.8813	0.8765	6.443478	29.79475
99	10.57958	3.3444709	0.8999	0.8950	6.446806	29.80985
100	10.58721	3.3421497	0.8972	0.8922	6.446914	29.78070
101	10.53949	3.3398549	0.9127	0.9077	6.453019	29.79698
102	10.55859	3.3395702	0.9130	0.9079	6.451059	29.77857
103	10.58117	3.3357839	0.8889	0.8840	6.450131	29.72278
104	10.60104	3.3354741	0.8893	0.8844	6.448099	29.70355
105	10.60610	3.3344883	0.8926	0.8877	6.447945	29.68971
106	10.58225	3.3321574	0.9051	0.9001	6.451474	29.68610
107	10.56348	3.3327388	0.9206	0.9156	6.453281	29.70711
108	10.55313	3.3295999	0.9088	0.9038	6.455673	29.68453
109	10.54279	3.3281162	0.8818	0.8769	6.457397	29.67831
110	10.50909	3.3273779	0.9003	0.8954	6.461366	29.69843
111	10.51562	3.3265761	0.9037	0.8987	6.460978	29.68518
112	10.49484	3.3236857	0.9040	0.8991	6.464413	29.67352
113	10.49019	3.3242222	0.9257	0.9206	6.464704	29.68261
114	10.49615	3.3226635	0.8986	0.8937	6.464684	29.66235
115	10.45592	3.3196485	0.8837	0.8788	6.470298	29.66528
116	10.41199	3.3214530	0.9175	0.9125	6.474367	29.71896
117	10.44962	3.3168044	0.8996	0.8947	6.472139	29.64224
118	9.79195	3.2180514	1.2317	1.2249	6.586083	29.19163
119	8.86016	3.1953124	1.9228	1.9122	6.702707	29.72745
120	8.61014	3.1885678	2.6475	2.6330	6.734856	29.86775
121	8.48968	3.1797921	3.3996	3.3809	6.752932	29.87820
122	8.39653	3.1720356	4.2187	4.1955	6.767418	29.87605
123	8.33043	3.1668874	5.2841	5.2550	6.777579	29.87798
124	8.30530	3.1668075	6.3559	6.3209	6.780606	29.89803
125	8.29409	3.1650303	7.4062	7.3653	6.782762	29.88854
126	8.26760	3.1626036	8.4930	8.4462	6.787026	29.88523
127	8.21285	3.1605926	9.6043	9.5514	6.794460	29.91029
128	8.19481	3.1598194	10.8463	10.7865	6.796978	29.91703
129	8.17507	3.1593311	12.2193	12.1518	6.799573	29.92814
130	8.15475	3.1589852	13.6136	13.5384	6.802174	29.94125
131	8.14331	3.1588124	14.9805	14.8976	6.803639	29.94861
132	8.13391	3.1585159	16.3717	16.2811	6.804920	29.95293
133	8.10485	3.1575142	17.7994	17.7009	6.808866	29.96662
134	7.96999	3.1549981	19.2545	19.1479	6.826144	30.05504
135	7.87406	3.1553336	20.6489	20.5344	6.837492	30.14055
136	7.80119	3.1555389	22.0400	21.9178	6.846158	30.20508
137	7.74564	3.1559481	23.4344	23.3044	6.852661	30.25695
138	7.66254	3.1567846	24.8287	24.6908	6.862284	30.33748
139	7.57191	3.1607899	26.2352	26.0894	6.871329	30.45868
140	7.43547	3.1627046	27.6629	27.5091	6.886906	30.59845
141	7.40329	3.1627735	29.1029	28.9410	6.890789	30.62695
142	7.38975	3.1633622	30.4850	30.3153	6.892171	30.64461
143	7.37418	3.1657470	31.8733	31.6957	6.892941	30.68334
144	7.29078	3.1700230	33.2707	33.0853	6.901003	30.80267
145	7.19650	3.1712081	34.6802	34.4868	6.911879	30.89891
146	7.17030	3.1710848	36.1019	35.9004	6.915145	30.92038
147	7.16769	3.1711659	37.4993	37.2899	6.915450	30.92296
148	7.16195	3.1711168	38.9149	38.6975	6.916199	30.92693
149	7.15251	3.1715201	40.3001	40.0748	6.917177	30.93912
150	7.13165	3.1719856	41.6793	41.4461	6.919510	30.96222
151	7.12050	3.1723519	43.0675	42.8265	6.920715	30.97555
152	7.10836	3.1729103	44.4619	44.2129	6.921946	30.99186
153	7.10404	3.1729480	45.8259	45.5691	6.922481	30.99553
154	7.09091	3.1735126	47.1866	46.9220	6.923828	31.01281
155	7.03908	3.1753860	48.5810	48.3084	6.929243	31.07912
156	6.95928	3.1786309	49.9115	49.6313	6.937392	31.18585
157	6.86963	3.1830439	51.2297	50.9420	6.946170	31.31469
158	6.84177	3.1839322	52.5420	52.2467	6.949154	31.34916
159	6.83468	3.1843424	53.8481	53.5453	6.949844	31.35950
160	6.82904	3.1847649	55.1420	54.8317	6.950350	31.36866
161	6.81844	3.1856780	56.4359	56.1182	6.951220	31.38771
162	6.80918	3.1863925	57.7300	57.4048	6.952023	31.40337
163	6.80328	3.1867780	59.0299	58.6973	6.952579	31.41237
164	6.79728	3.1877285	60.3421	60.0019	6.952868	31.42763
165	6.78948	3.1886854	61.6848	61.3368	6.953376	31.44460
166	6.77950	3.1899406	63.0275	62.6717	6.954000	31.46683
167	6.76715	3.1908232	64.3153	63.9520	6.955096	31.48720
168	6.75713	3.1919855	65.5849	65.2142	6.955770	31.50852
169	6.74675	3.1923463	66.8607	66.4826	6.956884	31.52140
170	6.74283	3.1927507	68.1423	67.7568	6.957189	31.52884
171	6.73162	3.1938386	69.4273	69.0343	6.958043	31.55044
172	6.70964	3.1959276	70.6908	70.2905	6.959716	31.59295
173	6.67539	3.1988753	71.9513	71.5436	6.962456	31.65625
174	6.61507	3.2016253	73.2088	72.7937	6.968473	31.74166
175	6.59083	3.2020054	74.4693	74.0468	6.971269	31.76773
176	6.58106	3.2024226	75.7389	75.3090	6.972281	31.78080
177	6.56687	3.2034870	77.0116	76.5742	6.973510	31.80509
178	6.53947	3.2047446	78.2508	77.8062	6.976253	31.84384
179	6.51985	3.2054358	79.1736	78.7236	6.978325	31.86930
180	6.52077	3.2057282	78.9641	78.5153	6.978061	31.87176
181	6.52745	3.2055413	78.4870	78.0410	6.977328	31.86370
182	6.52627	3.2053607	78.0646	77.6210	6.977554	31.86301
183	6.52324	3.2052051	77.6422	77.2011	6.977993	31.86432
184	6.52760	3.2050493	77.2045	76.7660	6.977528	31.85874
185	6.53577	3.2045575	76.7455	76.3097	6.976767	31.84593
186	6.54512	3.2038603	76.1739	75.7414	6.975961	31.82982
187	6.55792	3.2034369	75.4137	74.9857	6.974593	31.81361
188	6.57026	3.2024722	74.5986	74.1754	6.973550	31.79191
189	6.58188	3.2020425	73.6466	73.2290	6.972325	31.77684
190	6.58852	3.2016689	72.6490	72.2372	6.971680	31.76704
191	6.59464	3.2010403	71.6331	71.2272	6.971225	31.75492
192	6.62429	3.1983096	70.6325	70.2324	6.968945	31.69793
193	6.66550	3.1961578	69.6438	69.2495	6.964964	31.63668
194	6.69839	3.1939382	68.6827	68.2940	6.962031	31.58247
195	6.72321	3.1928564	67.7216	67.3385	6.959520	31.54823
196	6.73513	3.1923278	66.7482	66.3707	6.958307	31.53193
197	6.74174	3.1920665	65.7658	65.3941	6.957610	31.52345
198	6.74665	3.1915380	64.7803	64.4143	6.957253	31.51363
199	6.75207	3.1912581	63.8129	63.4525	6.956710	31.50603
200	6.75842	3.1904066	62.8579	62.5030	6.956336	31.49134
201	6.76746	3.1894496	61.9180	61.5686	6.955687	31.47302
202	6.77883	3.1884555	60.9628	60.6190	6.954772	31.45218
203	6.78757	3.1875981	59.9987	59.6604	6.954110	31.43526
204	6.79449	3.1866104	59.0040	58.6714	6.953732	31.41860
205	6.80085	3.1859954	58.0519	57.7249	6.953241	31.40651
206	6.80618	3.1854983	57.1241	56.8025	6.952817	31.39664
207	6.81032	3.1850014	56.2087	55.8923	6.952538	31.38786
208	6.81544	3.1844796	55.2900	54.9789	6.952152	31.37791
209	6.82232	3.1839205	54.3471	54.0414	6.951569	31.36596
210	6.82899	3.1834981	53.4040	53.1038	6.950944	31.35569
211	6.83318	3.1831874	52.4855	52.1905	6.950567	31.34891
212	6.83556	3.1829327	51.5851	51.2953	6.950384	31.34437
213	6.83950	3.1821752	50.7029	50.4182	6.950259	31.33293
214	6.85062	3.1800403	49.7995	49.5200	6.949934	31.29994
215	6.87828	3.1776514	48.8839	48.6096	6.947718	31.24917
216	6.91228	3.1755732	47.9744	47.7053	6.944575	31.19611
217	6.96955	3.1739044	47.0891	46.8251	6.938395	31.12651
218	7.00732	3.1733768	46.2285	45.9694	6.934038	31.08707
219	7.02811	3.1729920	45.3495	45.0954	6.931678	31.06455
220	7.05286	3.1723840	44.4216	44.1728	6.928945	31.03608
221	7.08440	3.1718007	43.5121	43.2685	6.925376	31.00181
222	7.10232	3.1715586	42.6299	42.3913	6.923299	30.98350
223	7.10966	3.1714776	41.7538	41.5202	6.922428	30.97643
224	7.11274	3.1713348	40.8899	40.6612	6.922107	30.97251
225	7.11967	3.1708944	40.0199	39.7962	6.921461	30.96193
226	7.13134	3.1706338	39.1408	38.9221	6.920152	30.94904
227	7.13885	3.1704661	38.2556	38.0419	6.919304	30.94090
228	7.14338	3.1703418	37.3520	37.1435	6.918795	30.93590
229	7.15006	3.1701928	36.4607	36.2572	6.918039	30.92872
230	7.15851	3.1700065	35.5421	35.3438	6.917085	30.91955
231	7.17405	3.1695103	34.6720	34.4787	6.915422	30.90068
232	7.20198	3.1682830	33.7716	33.5833	6.912609	30.86288
233	7.26981	3.1651353	32.8680	32.6849	6.905886	30.76894
234	7.33571	3.1629360	31.9676	31.7895	6.898943	30.68721
235	7.37014	3.1616105	31.0793	30.9062	6.895394	30.64290
236	7.38718	3.1609849	30.2152	30.0471	6.893614	30.62151
237	7.39143	3.1608422	29.3332	29.1699	6.893151	30.61663
238	7.39515	3.1606562	28.4326	28.2744	6.892771	30.61174
239	7.42922	3.1589845	27.5290	27.3760	6.889433	30.56419
240	7.51342	3.1568547	26.5920	26.4442	6.880257	30.46781
241	7.57945	3.1547628	25.6732	25.5306	6.873264	30.38809
242	7.61910	3.1543230	24.7697	24.6321	6.868675	30.34918
243	7.65119	3.1541121	23.8630	23.7305	6.864892	30.31937
244	7.69122	3.1537774	22.9504	22.8230	6.860213	30.28138
245	7.72887	3.1535541	22.0406	21.9183	6.855773	30.24671
246	7.75601	3.1534484	21.1157	20.9986	6.852543	30.22246
247	7.79398	3.1531695	20.1908	20.0789	6.848096	30.18703
248	7.83400	3.1529400	19.2720	19.1652	6.843384	30.15041
249	7.86673	3.1528652	18.3471	18.2455	6.839476	30.12178
250	7.97548	3.1538038	17.4132	17.3168	6.826008	30.03854
251	8.08254	3.1545446	16.4882	16.3970	6.812868	29.95506
252	8.11281	3.1549151	15.5419	15.4559	6.809072	29.93351
253	8.12557	3.1551374	14.5987	14.5180	6.807432	29.92536
254	8.13182	3.1552175	13.6584	13.5830	6.806633	29.92127
255	8.13540	3.1553037	12.7275	12.6572	6.806150	29.91952
256	8.13952	3.1553777	11.8147	11.7494	6.805609	29.91718
257	8.14684	3.1554701	10.8684	10.8084	6.804677	29.91231
258	8.15026	3.1554945	9.8948	9.8403	6.804241	29.91007
259	8.15341	3.1555375	8.9210	8.8718	6.803828	29.90825
260	8.15673	3.1555928	7.9474	7.9036	6.803390	29.90642
261	8.16876	3.1556728	6.9798	6.9413	6.801904	29.89742
262	8.17940	3.1556601	6.0305	5.9973	6.800626	29.88863
263	8.18619	3.1558205	5.0629	5.0350	6.799727	29.88494
264	8.20070	3.1562469	4.0709	4.0485	6.797789	29.87750
265	8.21360	3.1569704	3.0881	3.0711	6.795907	29.87452
266	8.25918	3.1602184	2.1112	2.0996	6.788994	29.87017
267	8.42187	3.1767216	1.1740	1.1676	6.762254	29.90467
268	8.73438	3.1846168	0.3768	0.3747	6.722064	29.72324
269	8.74632	3.1814327	0.1276	0.1269	6.722083	29.68047
270	8.70298	2.7557430	0.1249	0.1242	6.917656	25.36112
271	8.60743	0.4440957	0.1222	0.1215	7.974805	3.53817
272	8.58905	0.4115105	0.1256	0.1249	7.992371	3.26407
273	8.57279	0.3591264	0.1229	0.1222	8.018039	2.82538
274	8.54287	0.2996856	0.1293	0.1286	8.049175	2.33377
275	8.51465	0.2821629	0.1327	0.1319	8.062030	2.19120
276	8.49049	0.2768058	0.1300	0.1293	8.068935	2.14864
277	8.46721	0.1973027	0.1302	0.1295	8.106991	1.50352
278	8.44345	0.2118711	0.1336	0.1329	8.105482	1.62191
