Scan Count	Temperature [ITS-90, deg C]	Conductivity [S/m]	Pressure, Strain Gauge [db]	Depth [salt water, m]	Oxygen Saturation, Weiss [ml/l]	Salinity, Practical [PSU]
1	14.39606	0.0002229	0.0945	0.0940	7.140308	0.00784
2	14.39707	0.0002507	0.0914	0.0909	7.140145	0.00793
3	14.39726	0.0002476	0.0913	0.0908	7.140116	0.00792
4	14.40035	0.0002722	0.0912	0.0907	7.139629	0.00801
5	14.39985	0.0003678	0.0882	0.0877	7.139692	0.00837
6	14.38968	0.0005034	0.0912	0.0907	7.141257	0.00892
7	14.38747	0.0005651	0.0882	0.0877	7.141591	0.00919
8	14.38053	0.0005743	0.0911	0.0906	7.142675	0.00923
9	14.38520	0.0005713	0.0942	0.0937	7.141945	0.00922
10	14.38873	0.0005682	0.0941	0.0936	7.141393	0.00920
11	14.39568	0.0005651	0.0912	0.0907	7.140307	0.00919
12	14.40737	0.0005651	0.0911	0.0906	7.138481	0.00920
13	14.40010	0.0005651	0.0942	0.0936	7.139616	0.00919
14	14.39069	0.0751962	0.1063	0.1057	7.120961	0.46805
15	11.96803	2.7438447	0.4899	0.4872	6.524678	23.07582
16	10.19908	3.2482162	0.8185	0.8140	6.527812	29.16461
17	9.97772	3.2637322	0.8063	0.8018	6.546086	29.49860
18	9.96176	3.2820182	0.8002	0.7958	6.540255	29.69477
19	10.00260	3.2947060	0.8002	0.7958	6.530442	29.78826
20	10.00024	3.2835627	0.8063	0.8018	6.535332	29.67863
21	10.02053	3.2831794	0.8124	0.8080	6.533235	29.65815
22	10.04779	3.2859367	0.8185	0.8140	6.529064	29.66338
23	10.06811	3.2852140	0.8155	0.8111	6.527108	29.63951
24	10.08299	3.2837503	0.8124	0.8079	6.526063	29.61272
25	10.10091	3.2928499	0.8155	0.8111	6.520315	29.68891
26	10.11400	3.2895430	0.8154	0.8110	6.520231	29.64518
27	10.11080	3.2924536	0.8216	0.8171	6.519383	29.67685
28	10.11878	3.2997438	0.8216	0.8171	6.515491	29.74308
29	10.15404	3.3152692	0.8216	0.8171	6.505199	29.86905
30	10.18917	3.3245977	0.8216	0.8171	6.497498	29.93316
31	10.21807	3.3323698	0.8217	0.8172	6.491135	29.98680
32	10.24406	3.3344480	0.8185	0.8140	6.487436	29.98604
33	10.26584	3.3445059	0.8216	0.8171	6.480936	30.06824
34	10.28853	3.3469287	0.8216	0.8171	6.477468	30.07358
35	10.31914	3.3528528	0.8156	0.8111	6.471711	30.10720
36	10.35058	3.3584769	0.8217	0.8172	6.465998	30.13710
37	10.38237	3.3612330	0.8187	0.8142	6.461422	30.13815
38	10.41284	3.3654357	0.8126	0.8082	6.456409	30.15467
39	10.44089	3.3670652	0.8188	0.8143	6.452708	30.14761
40	10.46596	3.3709598	0.8189	0.8144	6.448417	30.16549
41	10.49019	3.3698683	0.8158	0.8114	6.446238	30.13462
42	10.51676	3.3736499	0.8159	0.8115	6.441838	30.15012
43	10.54358	3.3754777	0.8160	0.8115	6.438206	30.14604
44	10.56820	3.3764170	0.8069	0.8025	6.435172	30.13500
45	10.58971	3.3796680	0.8132	0.8087	6.431546	30.14939
46	10.59700	3.3784740	0.8132	0.8087	6.431242	30.13157
47	10.61966	3.3783340	0.8163	0.8118	6.428858	30.11149
48	10.64370	3.3786894	0.8134	0.8089	6.426128	30.09518
49	10.66679	3.3799657	0.8165	0.8120	6.423133	30.08876
50	10.68670	3.3803593	0.8165	0.8120	6.420836	30.07626
51	10.70000	3.3800606	0.8167	0.8122	6.419527	30.06238
52	10.71410	3.3809688	0.8229	0.8184	6.417649	30.05974
53	10.71992	3.3789998	0.8231	0.8186	6.417811	30.03555
54	10.73906	3.3769231	0.8231	0.8186	6.416585	29.99939
55	10.75735	3.3786882	0.8203	0.8158	6.413917	30.00178
56	10.76878	3.3758625	0.8234	0.8189	6.413816	29.96460
57	10.78600	3.3748466	0.8266	0.8220	6.412373	29.94053
58	10.79630	3.3759765	0.8298	0.8252	6.410819	29.94321
59	10.81416	3.3741036	0.8299	0.8254	6.409648	29.91022
60	10.82698	3.3754238	0.8332	0.8286	6.407748	29.91271
61	10.83999	3.3743382	0.8302	0.8256	6.406785	29.89144
62	10.84801	3.3749792	0.8304	0.8258	6.405670	29.89119
63	10.85574	3.3735129	0.8336	0.8290	6.405423	29.87049
64	10.86555	3.3720722	0.8338	0.8292	6.404944	29.84838
65	10.87524	3.3711203	0.8370	0.8324	6.404283	29.83115
66	10.88550	3.3712280	0.8341	0.8295	6.403140	29.82386
67	10.89468	3.3708472	0.8313	0.8267	6.402307	29.81267
68	10.89979	3.3692675	0.8284	0.8238	6.402385	29.79304
69	10.90449	3.3706631	0.8316	0.8271	6.401329	29.80289
70	10.90914	3.3681827	0.8287	0.8242	6.401812	29.77481
71	10.91557	3.3683285	0.8289	0.8244	6.401065	29.77102
72	10.92034	3.3659565	0.8261	0.8215	6.401493	29.74393
73	10.92246	3.3658296	0.8232	0.8187	6.401315	29.74097
74	10.92573	3.3640035	0.8265	0.8219	6.401687	29.72044
75	10.92717	3.3647263	0.8297	0.8251	6.401247	29.72635
76	10.92883	3.3629955	0.8299	0.8253	6.401753	29.70806
77	10.93234	3.3609672	0.8301	0.8255	6.402179	29.68537
78	10.93303	3.3616010	0.8273	0.8228	6.401854	29.69102
79	10.92659	3.3559176	0.8275	0.8229	6.404791	29.64059
80	10.92034	3.3582552	0.8308	0.8263	6.404539	29.66853
81	10.91798	3.3553350	0.8309	0.8263	6.405947	29.64184
82	10.92177	3.3562281	0.8312	0.8266	6.405187	29.64752
83	10.92562	3.3530552	0.8313	0.8267	6.406028	29.61336
84	10.92332	3.3532388	0.8347	0.8301	6.406202	29.61701
85	10.92470	3.3510102	0.8287	0.8242	6.406936	29.59410
86	10.92275	3.3524410	0.8351	0.8305	6.406580	29.60967
87	10.92229	3.3495418	0.8383	0.8337	6.407776	29.58167
88	10.92039	3.3498076	0.8385	0.8339	6.407874	29.58580
89	10.92171	3.3490481	0.8327	0.8281	6.408033	29.57730
90	10.92120	3.3473395	0.8298	0.8253	6.408764	29.56100
91	10.92034	3.3460424	0.8330	0.8285	6.409370	29.54900
92	10.91620	3.3454478	0.8394	0.8348	6.410050	29.54651
93	10.91500	3.3439612	0.8457	0.8411	6.410768	29.53293
94	10.91299	3.3445685	0.8490	0.8443	6.410744	29.54049
95	10.91218	3.3438221	0.8462	0.8416	6.411126	29.53383
96	10.91023	3.3415327	0.8495	0.8448	6.412242	29.51300
97	10.90771	3.3416466	0.8527	0.8481	6.412469	29.51615
98	10.90254	3.3395475	0.8530	0.8483	6.413857	29.49976
99	10.89944	3.3393452	0.8623	0.8576	6.414271	29.50027
100	10.89686	3.3387384	0.8656	0.8608	6.414790	29.49640
101	10.89497	3.3383655	0.8659	0.8611	6.415142	29.49427
102	10.89244	3.3366084	0.8661	0.8613	6.416110	29.47911
103	10.88963	3.3367664	0.8663	0.8616	6.416351	29.48291
104	10.88717	3.3349402	0.8635	0.8588	6.417341	29.46702
105	10.88441	3.3343400	0.8638	0.8591	6.417876	29.46336
106	10.88063	3.3325079	0.8609	0.8562	6.419010	29.44846
107	10.87655	3.3328112	0.8612	0.8564	6.419330	29.45470
108	10.87231	3.3306069	0.8584	0.8537	6.420662	29.43653
109	10.86858	3.3304111	0.8648	0.8600	6.421143	29.43760
110	10.86411	3.3290093	0.8619	0.8572	6.422182	29.42747
111	10.86062	3.3284663	0.8592	0.8544	6.422776	29.42496
112	10.85563	3.3276898	0.8593	0.8546	6.423623	29.42135
113	10.85196	3.3264715	0.8566	0.8518	6.424503	29.41237
114	10.84680	3.3261370	0.8629	0.8582	6.425194	29.41322
115	10.84331	3.3245970	0.8540	0.8493	6.426184	29.40095
116	10.83844	3.3245781	0.8604	0.8556	6.426719	29.40467
117	10.83443	3.3229059	0.8666	0.8619	6.427818	29.39150
118	10.82990	3.3234360	0.8669	0.8621	6.428097	29.40032
119	10.82612	3.3209754	0.8610	0.8563	6.429485	29.37924
120	10.82091	3.3216884	0.8612	0.8565	6.429766	29.39041
121	10.81771	3.3196509	0.8615	0.8568	6.430924	29.37301
122	10.81272	3.3195878	0.8649	0.8601	6.431489	29.37638
123	10.68111	3.2818913	1.0447	1.0389	6.460890	29.11162
124	10.08069	3.2522844	1.7784	1.7686	6.539355	29.30020
125	10.10383	3.2646399	1.9704	1.9596	6.531668	29.40458
126	10.05526	3.2460231	2.4242	2.4108	6.544802	29.25805
127	9.85213	3.2413994	3.3162	3.2980	6.569527	29.37621
128	9.78147	3.2396945	4.2722	4.2487	6.578215	29.41631
129	9.72345	3.2351352	5.2556	5.2267	6.586699	29.41743
130	9.61644	3.2311719	6.2998	6.2651	6.600500	29.46463
131	9.50109	3.2266740	7.4050	7.3642	6.615527	29.51344
132	9.39128	3.2227647	8.5467	8.4995	6.629730	29.56383
133	9.29403	3.2204403	9.6851	9.6317	6.641861	29.62014
134	9.24987	3.2195559	10.8178	10.7580	6.647318	29.64727
135	9.19413	3.2157365	11.9654	11.8993	6.655385	29.65413
136	9.12810	3.2113647	13.1284	13.0558	6.664893	29.66387
137	9.07072	3.2096284	14.3034	14.2244	6.672279	29.69339
138	9.04431	3.2092616	15.4816	15.3960	6.675505	29.71118
139	9.02834	3.2077307	16.6750	16.5828	6.678038	29.70831
140	8.95447	3.2043089	17.8775	17.7785	6.688096	29.73440
141	8.89625	3.2027482	19.1166	19.0107	6.695545	29.76657
142	8.85668	3.2014800	20.3557	20.2429	6.700716	29.78618
143	8.80882	3.1994720	21.6494	21.5293	6.707184	29.80512
144	8.73628	3.1962463	22.9585	22.8311	6.717077	29.83229
145	8.61836	3.1916926	24.2888	24.1540	6.732890	29.88406
146	8.36916	3.1817918	25.6344	25.4920	6.766615	29.99191
147	8.11670	3.1771544	26.9891	26.8391	6.798594	30.15876
148	8.03262	3.1752642	28.3438	28.1861	6.809473	30.21069
149	7.89610	3.1687145	29.7199	29.5545	6.828799	30.25896
150	7.75612	3.1662508	31.1142	30.9409	6.846719	30.35377
151	7.69910	3.1650007	32.5236	32.3424	6.854172	30.38956
152	7.67083	3.1638558	33.9514	33.7621	6.858133	30.40143
153	7.62517	3.1613802	35.3974	35.2000	6.864818	30.41434
154	7.51868	3.1573218	36.8312	36.6256	6.879601	30.46366
155	7.40035	3.1536119	38.2986	38.0846	6.895706	30.52731
156	7.21707	3.1482415	39.7659	39.5436	6.920575	30.63086
157	7.04922	3.1444620	41.1236	40.8936	6.942922	30.73866
158	6.97765	3.1427088	42.3079	42.0711	6.952566	30.78304
159	6.94454	3.1417337	43.4069	43.1639	6.957128	30.80160
160	6.91347	3.1402029	44.4695	44.2204	6.961714	30.81232
161	6.87704	3.1391972	45.5686	45.3133	6.966708	30.83355
162	6.86233	3.1390248	46.6646	46.4030	6.968624	30.84438
163	6.85865	3.1389387	47.7849	47.5169	6.969142	30.84623
164	6.82713	3.1374826	48.9053	48.6309	6.973762	30.85819
165	6.79491	3.1368969	50.0470	49.7660	6.978045	30.88026
166	6.78664	3.1366072	51.1917	50.9041	6.979231	30.88402
167	6.75233	3.1358488	52.3790	52.0846	6.983862	30.90610
168	6.71738	3.1348930	53.5907	53.2894	6.988676	30.92662
169	6.65720	3.1333638	54.8176	54.5092	6.996901	30.96369
170	6.59500	3.1303670	56.0659	55.7503	7.006126	30.98659
171	6.54615	3.1289373	57.3414	57.0185	7.012929	31.01461
172	6.51964	3.1275013	58.6261	58.2958	7.016969	31.02232
173	6.49777	3.1268300	59.9322	59.5943	7.020052	31.03421
174	6.48514	3.1259983	61.2534	60.9079	7.022068	31.03593
175	6.46570	3.1255613	62.6112	62.2578	7.024737	31.04818
176	6.44437	3.1243539	64.0025	63.6411	7.028030	31.05366
177	6.42079	3.1227401	65.3847	65.0152	7.031812	31.05672
178	6.37895	3.1199811	66.7638	66.3863	7.038455	31.06380
179	6.34212	3.1181158	68.1795	67.7937	7.044033	31.07616
180	6.31875	3.1172913	69.6194	69.2252	7.047404	31.08771
181	6.30225	3.1160544	71.0806	70.6779	7.050129	31.08845
182	6.28319	3.1146391	72.5572	72.1459	7.053266	31.08953
183	6.23588	3.1118583	74.0429	73.6229	7.060647	31.10134
184	6.22012	3.1122342	75.5437	75.1149	7.062466	31.11921
185	6.22349	3.1125546	77.0173	76.5799	7.061912	31.11899
186	6.22507	3.1129304	78.3964	77.9509	7.061551	31.12105
187	6.22762	3.1133431	79.7635	79.3100	7.061050	31.12265
188	6.21742	3.1124328	81.0543	80.5932	7.062822	31.12131
189	6.19509	3.1114981	82.3635	81.8947	7.066132	31.13079
190	6.17482	3.1108834	83.6880	83.2114	7.069023	31.14194
191	6.17028	3.1112838	85.0215	84.5370	7.069417	31.14991
192	6.17492	3.1122010	86.4007	85.9081	7.068395	31.15517
193	6.17736	3.1124414	87.7587	87.2580	7.067994	31.15496
194	6.17553	3.1126018	89.1379	88.6291	7.068173	31.15778
195	6.17583	3.1128176	90.5231	90.0061	7.068054	31.15924
196	6.17670	3.1129842	91.9479	91.4224	7.067890	31.15963
197	6.17701	3.1131385	93.3819	92.8479	7.067804	31.16039
198	6.17797	3.1132743	94.8372	94.2945	7.067644	31.16033
199	6.17787	3.1132870	96.3047	95.7533	7.067682	31.15988
200	6.17823	3.1135213	97.7783	97.2181	7.067549	31.16146
201	6.18001	3.1138418	99.2549	98.6859	7.067193	31.16269
202	6.17889	3.1140700	100.7436	100.1657	7.067249	31.16555
203	6.17828	3.1146059	102.2567	101.6698	7.067085	31.17134
204	6.17558	3.1147357	103.7791	103.1830	7.067390	31.17454
205	6.16463	3.1147055	105.3196	104.7143	7.068815	31.18353
206	6.15714	3.1144167	106.8815	106.2668	7.069937	31.18647
207	6.14554	3.1147620	108.4280	107.8040	7.071253	31.20023
208	6.13602	3.1148918	110.0173	109.3838	7.072418	31.20966
209	6.13398	3.1149723	111.5304	110.8877	7.072665	31.21172
210	6.13327	3.1150897	112.9950	112.3434	7.072727	31.21299
211	6.13302	3.1152564	114.4502	113.7899	7.072705	31.21439
212	6.13348	3.1153799	115.9147	115.2456	7.072615	31.21466
213	6.13292	3.1154481	117.3883	116.7102	7.072682	31.21524
214	6.13225	3.1154978	118.8466	118.1597	7.072772	31.21572
215	6.13261	3.1156950	119.6325	118.9408	7.072643	31.21721
216	6.13622	3.1158981	119.6238	118.9322	7.072084	31.21615
217	6.13877	3.1160890	119.6154	118.9238	7.071666	31.21593
218	6.13790	3.1158858	119.6037	118.9122	7.071879	31.21448
219	6.13704	3.1159289	119.4492	118.7586	7.071962	31.21583
220	6.13877	3.1161010	118.7710	118.0846	7.071642	31.21646
221	6.13770	3.1156945	118.0016	117.3198	7.071968	31.21329
222	6.13439	3.1155158	117.2414	116.5642	7.072459	31.21471
223	6.13368	3.1154786	116.4871	115.8145	7.072551	31.21530
224	6.13465	3.1154907	115.7117	115.0438	7.072407	31.21491
225	6.13470	3.1154227	114.9483	114.2850	7.072419	31.21446
226	6.13465	3.1153425	114.1759	113.5172	7.072450	31.21398
227	6.13454	3.1152807	113.4156	112.7615	7.072478	31.21374
228	6.13475	3.1151696	112.6431	111.9938	7.072492	31.21269
229	6.13465	3.1151140	111.8615	111.2168	7.072517	31.21253
230	6.13515	3.1150522	111.0099	110.3704	7.072466	31.21177
231	6.13505	3.1149165	110.1370	109.5027	7.072530	31.21077
232	6.13475	3.1148485	109.2245	108.5958	7.072583	31.21072
233	6.13500	3.1147621	108.3120	107.6887	7.072576	31.20996
234	6.13571	3.1146387	107.3904	106.7726	7.072530	31.20836
235	6.14213	3.1143306	106.4991	105.8868	7.071862	31.19948
236	6.15047	3.1141825	105.5959	104.9889	7.070868	31.19059
237	6.15562	3.1143238	104.7258	104.1241	7.070131	31.18785
238	6.16030	3.1144835	103.8682	103.2716	7.069441	31.18572
239	6.16585	3.1145201	103.0103	102.4188	7.068707	31.18143
240	6.17319	3.1146491	102.1527	101.5664	7.067700	31.17653
241	6.17757	3.1144149	101.2857	100.7045	7.067251	31.17033
242	6.17889	3.1141191	100.4188	99.8429	7.067217	31.16624
243	6.18027	3.1138111	99.5490	98.9782	7.067183	31.16198
244	6.18088	3.1137247	98.6760	98.1104	7.067131	31.16087
245	6.18083	3.1137060	97.8273	97.2668	7.067129	31.16110
246	6.18128	3.1135580	96.9725	96.4171	7.067129	31.15944
247	6.18108	3.1133115	96.0936	95.5435	7.067261	31.15731
248	6.17838	3.1129913	95.2235	94.6786	7.067746	31.15664
249	6.17711	3.1129049	94.3597	93.8199	7.067931	31.15725
250	6.17665	3.1128246	93.4958	92.9611	7.068012	31.15719
251	6.17639	3.1127505	92.6258	92.0963	7.068063	31.15701
252	6.17675	3.1127318	91.7559	91.2315	7.068009	31.15688
253	6.17695	3.1126208	90.8736	90.3545	7.068021	31.15587
254	6.17690	3.1125651	89.9915	89.4776	7.068037	31.15571
255	6.17741	3.1125525	89.1062	88.5975	7.067960	31.15552
256	6.17690	3.1123554	88.2149	87.7116	7.068106	31.15422
257	6.17589	3.1121766	87.3207	86.8226	7.068306	31.15359
258	6.17619	3.1119795	86.4324	85.9396	7.068349	31.15154
259	6.17716	3.1117207	85.5320	85.0445	7.068340	31.14821
260	6.17813	3.1114990	84.6376	84.1554	7.068313	31.14528
261	6.17487	3.1107481	83.7127	83.2360	7.069087	31.14038
262	6.17792	3.1114923	82.8061	82.3347	7.068303	31.14625
263	6.18674	3.1118242	81.8997	81.4337	7.067006	31.14227
264	6.18852	3.1112824	80.9992	80.5384	7.067039	31.13506
265	6.18964	3.1112514	80.0834	79.6280	7.066894	31.13412
266	6.20427	3.1120016	79.1708	78.7208	7.064654	31.12945
267	6.21696	3.1119951	78.2552	77.8106	7.063043	31.11819
268	6.22022	3.1119578	77.3212	76.8820	7.062632	31.11523
269	6.22094	3.1118037	76.3720	75.9384	7.062601	31.11331
270	6.21987	3.1116189	75.4380	75.0098	7.062810	31.11268
271	6.21890	3.1114402	74.5039	74.0812	7.063002	31.11203
272	6.21854	3.1113107	73.5701	73.1529	7.063093	31.11136
273	6.21747	3.1112120	72.6360	72.2243	7.063258	31.11168
274	6.22196	3.1117162	71.6899	71.2837	7.062417	31.11359
275	6.23762	3.1131619	70.7497	70.3490	7.059694	31.11570
276	6.26966	3.1147185	69.8035	69.4083	7.054863	31.10404
277	6.29045	3.1155552	68.8543	68.4646	7.051813	31.09474
278	6.30475	3.1158010	67.9082	67.5240	7.049876	31.08484
279	6.31017	3.1163239	66.9619	66.5833	7.048913	31.08611
280	6.31502	3.1168839	66.0188	65.6456	7.048001	31.08829
281	6.32519	3.1162309	65.0695	64.7019	7.047039	31.07225
282	6.33547	3.1184410	64.1263	63.7641	7.044613	31.08769
283	6.39022	3.1218772	63.1831	62.8264	7.036015	31.07608
284	6.41628	3.1228933	62.2247	61.8735	7.032229	31.06397
285	6.43878	3.1240882	61.2755	60.9298	7.028803	31.05708
286	6.46057	3.1246177	60.2957	59.9557	7.025801	31.04354
287	6.47791	3.1252828	59.3403	59.0058	7.023288	31.03553
288	6.48833	3.1255968	58.3820	58.0531	7.021814	31.02996
289	6.49295	3.1258307	57.4144	57.0911	7.021101	31.02878
290	6.49987	3.1264960	56.4468	56.1290	7.019885	31.03024
291	6.52452	3.1279812	55.4701	55.1579	7.016055	31.02461
292	6.55808	3.1297687	54.4903	54.1838	7.010972	31.01422
293	6.60375	3.1315874	53.5197	53.2188	7.004379	30.99321
294	6.64721	3.1327217	52.5277	52.2325	6.998410	30.96675
295	6.68225	3.1334428	51.5479	51.2583	6.993695	30.94342
296	6.70948	3.1339913	50.5560	50.2722	6.990036	30.92529
297	6.74706	3.1347373	49.5763	49.2980	6.985005	30.90000
298	6.77661	3.1350390	48.5995	48.3269	6.981189	30.87714
299	6.78539	3.1351250	47.6106	47.3436	6.980043	30.87062
300	6.78999	3.1354702	46.6125	46.3512	6.979284	30.87070
301	6.81244	3.1366053	45.5841	45.3287	6.975936	30.86335
302	6.83872	3.1368516	44.5920	44.3422	6.972557	30.84288
303	6.84814	3.1369623	43.6395	43.3952	6.971324	30.83606
304	6.85321	3.1370731	42.7511	42.5119	6.970626	30.83311
305	6.86580	3.1378751	41.8718	41.6375	6.968665	30.83095
306	6.90917	3.1396832	40.9558	40.7267	6.962426	30.81213
307	6.94827	3.1408125	40.0521	39.8282	6.957052	30.78978
308	6.97994	3.1423558	39.1698	38.9509	6.952395	30.77859
309	7.05234	3.1451531	38.2721	38.0583	6.942146	30.74464
310	7.19096	3.1493042	37.3835	37.1748	6.923194	30.66653
311	7.32806	3.1519053	36.4614	36.2579	6.905252	30.57356
312	7.41945	3.1552128	35.5547	35.3563	6.892574	30.52885
313	7.51647	3.1577357	34.6449	34.4517	6.879628	30.47098
314	7.56312	3.1586755	33.7349	33.5469	6.873538	30.44053
315	7.58656	3.1594919	32.8190	32.6362	6.870307	30.42912
316	7.60681	3.1602589	31.9000	31.7223	6.867489	30.41998
317	7.63245	3.1612549	30.9840	30.8115	6.863915	30.40858
318	7.65615	3.1619230	30.0803	29.9129	6.860732	30.39539
319	7.67986	3.1633589	29.1735	29.0112	6.857189	30.39036
320	7.75040	3.1667517	28.2606	28.1034	6.847114	30.36531
321	7.89854	3.1712668	27.3295	27.1776	6.827274	30.28486
322	8.00108	3.1730816	26.4105	26.2637	6.814196	30.21574
323	8.03129	3.1737319	25.4821	25.3406	6.810285	30.19694
324	8.04819	3.1744755	24.5570	24.4206	6.807916	30.19061
325	8.10698	3.1781148	23.6137	23.4826	6.799241	30.17866
326	8.32012	3.1852114	22.6764	22.5506	6.770785	30.07069
327	8.50785	3.1897796	21.7420	21.6215	6.746637	29.95885
328	8.63123	3.1929651	20.8017	20.6864	6.730753	29.88784
329	8.71572	3.1958166	19.8583	19.7482	6.719607	29.84646
330	8.77986	3.1976185	18.8936	18.7889	6.711322	29.81149
331	8.81638	3.1985878	17.9075	17.8084	6.706630	29.79123
332	8.84454	3.1999988	16.9032	16.8097	6.702717	29.78255
333	8.88928	3.2019075	15.9049	15.8170	6.696667	29.76510
334	8.94045	3.2039970	14.9249	14.8424	6.689803	29.74415
335	8.99131	3.2058381	13.9297	13.8527	6.683096	29.72096
336	9.03539	3.2077171	12.9254	12.8540	6.677164	29.70384
337	9.09086	3.2099948	11.9210	11.8552	6.669756	29.68135
338	9.12903	3.2112457	10.9167	10.8565	6.664799	29.66279
339	9.17196	3.2126213	9.9275	9.8727	6.659248	29.64158
340	9.19918	3.2131502	9.0784	9.0283	6.655877	29.62473
341	9.23097	3.2148004	8.2811	8.2354	6.651499	29.61552
342	9.32420	3.2193858	7.4865	7.4453	6.638827	29.58535
343	9.44471	3.2228009	6.7318	6.6947	6.623591	29.52088
344	9.49357	3.2237980	5.9955	5.9625	6.617587	29.49108
345	9.52489	3.2251884	5.2315	5.2027	6.613418	29.47973
346	9.55025	3.2261735	4.4646	4.4400	6.610103	29.46918
347	9.56028	3.2264789	3.7038	3.6834	6.608821	29.46435
348	9.58865	3.2287745	2.9580	2.9417	6.604612	29.46457
349	9.63109	3.2291295	2.1971	2.1850	6.599636	29.43369
350	9.61755	3.2284492	1.4148	1.4070	6.601446	29.43823
351	9.59553	3.2276006	0.6417	0.6382	6.604291	29.44801
352	9.58039	3.2262405	0.1974	0.1963	6.606579	29.44686
353	9.56033	3.2252800	0.1854	0.1844	6.609265	29.45361
354	9.54499	1.6386614	0.1856	0.1846	7.294123	14.03471
355	9.51282	0.4396575	0.1858	0.1848	7.810839	3.41308
356	9.50120	0.3256010	0.1859	0.1848	7.859540	2.48107
357	9.48251	0.3461831	0.1860	0.1850	7.854598	2.64920
358	9.44963	0.2678659	0.1830	0.1820	7.892301	2.02045
359	9.41837	0.2321390	0.1862	0.1851	7.912390	1.73821
360	9.39503	0.2368117	0.1832	0.1822	7.914856	1.77634
361	9.37236	0.1918939	0.1834	0.1824	7.936957	1.42374
362	9.34430	0.1564117	0.1866	0.1856	7.956193	1.14905
