Scan Count	Temperature [ITS-90, deg C]	Conductivity [S/m]	Pressure, Strain Gauge [db]	Depth [salt water, m]	Oxygen Saturation, Weiss [ml/l]	Salinity, Practical [PSU]
1	13.64895	0.0000996	0.0116	0.0116	7.258824	0.00713
2	13.64369	0.0000996	0.0116	0.0116	7.259670	0.00713
3	13.64159	0.0001397	0.0147	0.0146	7.260004	0.00723
4	13.64041	0.0002044	0.0116	0.0115	7.260184	0.00743
5	13.63973	0.0002106	0.0146	0.0146	7.260293	0.00745
6	13.63905	0.0002661	0.0147	0.0146	7.260394	0.00765
7	13.63967	0.0002692	0.0086	0.0085	7.260293	0.00766
8	13.64035	0.0002630	0.0115	0.0115	7.260185	0.00764
9	13.64091	0.0002568	0.0116	0.0116	7.260096	0.00761
10	13.64146	0.0002507	0.0147	0.0146	7.260008	0.00759
11	11.84659	1.5544815	0.1821	0.1811	6.992481	12.44743
12	8.70499	2.8287717	0.5290	0.5261	6.884624	26.10049
13	8.17015	2.8606255	0.6995	0.6957	6.937400	26.82795
14	8.38271	2.8766422	0.6143	0.6109	6.903332	26.83106
15	8.31196	2.9011348	0.6326	0.6291	6.900983	27.13745
16	8.19122	2.9141161	0.6540	0.6504	6.910093	27.36513
17	8.11168	2.9197800	0.6722	0.6685	6.917413	27.48597
18	8.04115	2.9035470	0.7362	0.7321	6.933771	27.37246
19	8.10987	2.9119682	1.0771	1.0711	6.921260	27.40613
20	8.44948	2.9159510	1.1623	1.1559	6.877132	27.18385
21	8.12552	2.9202666	1.1715	1.1650	6.915469	27.47999
22	7.92697	2.9212839	1.1685	1.1620	6.939851	27.64674
23	7.83724	2.9261654	1.1746	1.1681	6.948831	27.76887
24	7.77666	2.9294314	1.1716	1.1651	6.954909	27.85134
25	7.75014	2.9318742	1.1776	1.1711	6.957094	27.89816
26	7.73886	2.9366049	1.1807	1.1742	6.956279	27.95685
27	7.75448	2.9480520	1.1777	1.1712	6.948923	28.06455
28	7.81009	2.9631269	1.1807	1.1742	6.934877	28.17801
29	7.85543	2.9708383	1.1808	1.1743	6.925610	28.22229
30	7.89477	2.9799251	1.1840	1.1775	6.916470	28.28573
31	7.93967	2.9874165	1.1840	1.1775	6.907408	28.32784
32	7.98101	2.9920588	1.1810	1.1745	6.900136	28.34295
33	8.01637	2.9992037	1.1811	1.1746	6.892454	28.38900
34	8.05373	3.0038347	1.1873	1.1807	6.885706	28.40709
35	8.09385	3.0075147	1.1812	1.1747	6.879073	28.41300
36	8.13690	3.0123267	1.1813	1.1748	6.871571	28.42830
37	8.17742	3.0151471	1.1875	1.1810	6.865309	28.42486
38	8.21847	3.0179745	1.1785	1.1720	6.858991	28.42108
39	8.25575	3.0194706	1.1847	1.1782	6.853753	28.40650
40	8.27103	3.0143132	1.1817	1.1752	6.854249	28.34062
41	8.28615	3.0140334	1.1788	1.1723	6.852530	28.32554
42	8.30675	3.0215084	1.1850	1.1785	6.846602	28.38649
43	8.34681	3.0255069	1.1851	1.1786	6.839902	28.39566
44	8.37109	3.0250014	1.1792	1.1728	6.837179	28.37086
45	8.41503	3.0268580	1.1854	1.1789	6.830998	28.35472
46	8.44076	3.0273692	1.1856	1.1791	6.827644	28.33933
47	8.47868	3.0278256	1.1827	1.1762	6.822840	28.31360
48	8.51535	3.0291347	1.1889	1.1824	6.817808	28.29772
49	8.54832	3.0291465	1.1801	1.1736	6.813813	28.27144
50	8.57425	3.0292498	1.1832	1.1767	6.810632	28.25178
51	8.60019	3.0307724	1.1865	1.1800	6.806813	28.24673
52	8.62561	3.0304798	1.1836	1.1771	6.803876	28.22344
53	8.64942	3.0307963	1.1868	1.1803	6.800862	28.20771
54	8.66988	3.0307839	1.1932	1.1866	6.798400	28.19128
55	8.68917	3.0294070	1.1842	1.1777	6.796691	28.16180
56	8.70748	3.0297541	1.1906	1.1840	6.794329	28.15080
57	8.72630	3.0285783	1.1877	1.1812	6.792588	28.12380
58	8.74252	3.0277560	1.1849	1.1784	6.791002	28.10251
59	8.75934	3.0282674	1.1882	1.1816	6.788749	28.09442
60	8.77508	3.0261298	1.1884	1.1819	6.787806	28.06007
61	8.78524	3.0268056	1.1947	1.1881	6.786284	28.05895
62	8.79958	3.0258191	1.1889	1.1824	6.784997	28.03752
63	8.80964	3.0239561	1.1861	1.1795	6.784616	28.01052
64	8.81491	3.0233961	1.1894	1.1828	6.784231	28.00064
65	8.82344	3.0233352	1.1897	1.1831	6.783231	27.99328
66	8.83241	3.0221361	1.1929	1.1864	6.782685	27.97395
67	8.83927	3.0222517	1.1932	1.1867	6.781809	27.96973
68	8.84726	3.0204504	1.1905	1.1839	6.781647	27.94504
69	8.85156	3.0185340	1.1877	1.1812	6.781980	27.92209
70	8.85466	3.0185644	1.1910	1.1844	6.781593	27.91996
71	8.86059	3.0176945	1.1912	1.1847	6.781266	27.90641
72	8.86549	3.0173661	1.1946	1.1880	6.780822	27.89921
73	8.87044	3.0156572	1.1918	1.1853	6.780984	27.87788
74	8.87431	3.0134623	1.1952	1.1886	6.781491	27.85245
75	8.87703	3.0132981	1.1954	1.1889	6.781236	27.84864
76	8.88182	3.0110978	1.1867	1.1801	6.781634	27.82244
77	8.88346	3.0110492	1.1931	1.1865	6.781459	27.82067
78	8.88716	3.0086065	1.1903	1.1837	6.782095	27.79286
79	8.88770	3.0072700	1.1906	1.1840	6.782621	27.77880
80	8.89037	3.0066626	1.1970	1.1904	6.782569	27.77052
81	8.89271	3.0045187	1.1882	1.1816	6.783236	27.74684
82	8.88934	3.0040877	1.1946	1.1880	6.783834	27.74508
83	8.89168	3.0035108	1.2009	1.1943	6.783807	27.73737
84	8.89070	3.0007184	1.1891	1.1826	6.785161	27.70967
85	8.88683	3.0005364	1.1986	1.1920	6.785709	27.71083
86	8.88825	2.9992619	1.1959	1.1893	6.786102	27.69673
87	8.88487	2.9977026	1.1931	1.1866	6.787200	27.68347
88	8.88264	2.9970110	1.1995	1.1929	6.787776	27.67816
89	8.87921	2.9947910	1.1908	1.1842	6.789174	27.65820
90	8.87442	2.9949062	1.1972	1.1906	6.789702	27.66310
91	8.87393	2.9929536	1.1975	1.1909	6.790627	27.64358
92	8.86963	2.9919653	1.2008	1.1942	6.791585	27.63684
93	8.86778	2.9907953	1.1951	1.1885	6.792327	27.62636
94	8.86032	2.9884801	1.1955	1.1889	6.794256	27.60855
95	8.85390	2.9886680	1.2049	1.1983	6.794950	27.61545
96	8.85314	2.9863534	1.1961	1.1896	6.796069	27.59244
97	8.84737	2.9856870	1.1965	1.1899	6.797063	27.59013
98	8.84536	2.9849177	1.2029	1.1963	6.797648	27.58384
99	8.84133	2.9830342	1.1972	1.1906	6.798972	27.56776
100	8.83285	2.9823681	1.2006	1.1940	6.800297	27.56755
101	8.82899	2.9819201	1.2071	1.2004	6.800964	27.56597
102	8.82573	2.9798677	1.1953	1.1887	6.802272	27.54757
103	8.81817	2.9791595	1.2047	1.1980	6.803504	27.54621
104	8.81420	2.9786390	1.2050	1.1984	6.804217	27.54397
105	8.80991	2.9760490	1.1993	1.1928	6.805890	27.52088
106	8.79790	2.9755227	1.2057	1.1991	6.807583	27.52481
107	8.79562	2.9745366	1.2061	1.1995	6.808300	27.51652
108	8.78953	2.9725043	1.1973	1.1908	6.809944	27.50049
109	8.77715	2.9722323	1.2099	1.2033	6.811571	27.50731
110	8.77590	2.9703336	1.2043	1.1976	6.812570	27.48889
111	8.76623	2.9692152	1.2015	1.1949	6.814245	27.48495
112	8.76200	2.9685321	1.2049	1.1983	6.815065	27.48126
113	8.75771	2.9674502	1.2022	1.1956	6.816070	27.47353
114	8.75082	2.9666163	1.2026	1.1960	6.817282	27.47035
115	8.74572	2.9661268	1.2061	1.1995	6.818122	27.46929
116	8.74176	2.9646343	1.2003	1.1937	6.819271	27.45711
117	8.73319	2.9628946	1.2007	1.1941	6.821094	27.44597
118	8.72494	2.9629671	1.2072	1.2005	6.822067	27.45309
119	8.72169	2.9610344	1.2015	1.1949	6.823328	27.43585
120	8.71106	2.9598751	1.2048	1.1982	6.825145	27.43222
121	8.70569	2.9595913	1.2113	1.2047	6.825927	27.43347
122	8.70071	2.9573033	1.2027	1.1961	6.827561	27.41394
123	8.68884	2.9569955	1.2060	1.1994	6.829149	27.41997
124	8.68597	2.9560781	1.2095	1.2028	6.829911	27.41280
125	8.67806	2.9541471	1.2068	1.2002	6.831744	27.39917
126	8.66907	2.9538878	1.2133	1.2066	6.832961	27.40347
127	8.66257	2.9522227	1.2107	1.2040	6.834503	27.39145
128	8.65212	2.9511793	1.2050	1.1983	6.836251	27.38885
129	8.64379	2.9514387	1.2144	1.2077	6.837156	27.39795
130	8.64135	2.9496656	1.2087	1.2021	6.838251	27.38168
131	8.45751	2.9149363	1.2090	1.2024	6.876599	27.16722
132	7.54842	2.8864844	1.2155	1.2089	7.004170	27.58148
133	7.36878	2.8870544	1.2068	1.2001	7.026861	27.73060
134	7.35221	2.8863247	1.2072	1.2005	7.029335	27.73613
135	7.33461	2.8860018	1.2135	1.2069	7.031748	27.74680
136	7.34016	2.8852064	1.4819	1.4737	7.031425	27.73381
137	7.33309	2.8856552	2.1792	2.1672	7.032128	27.74394
138	7.22673	2.8874271	2.8858	2.8699	7.044940	27.84786
139	7.12701	2.8874163	3.5985	3.5787	7.057794	27.92793
140	6.97179	2.8876572	4.3233	4.2995	7.077732	28.05621
141	6.80794	2.8864565	5.0543	5.0264	7.099581	28.17696
142	6.55047	2.8779096	5.7912	5.7593	7.137458	28.29645
143	6.23568	2.8705784	6.5860	6.5497	7.182623	28.47827
144	6.02589	2.8627641	7.3839	7.3432	7.214499	28.56841
145	5.97242	2.8763502	8.2214	8.1760	7.214567	28.76292
146	6.13439	2.9017270	9.0649	9.0149	7.180021	28.90418
147	6.41823	2.9223643	9.9174	9.8627	7.132333	28.88877
148	6.39518	2.9224369	10.8584	10.7985	7.135316	28.90867
149	6.38745	2.9240961	11.7872	11.7221	7.135499	28.93294
150	6.38499	2.9289908	12.6946	12.6245	7.133351	28.98807
151	6.38100	2.9334793	13.6447	13.5693	7.131609	29.04008
152	6.41490	2.9460431	14.5765	14.4959	7.120854	29.14797
153	6.50039	2.9567611	15.5053	15.4196	7.104404	29.19145
154	6.50629	2.9656935	16.4523	16.3613	7.099159	29.28333
155	6.50747	2.9786055	17.4115	17.3151	7.092518	29.42268
156	6.51019	2.9854420	18.4256	18.3235	7.088745	29.49446
157	6.51030	2.9929757	19.4091	19.3016	7.084957	29.57613
158	6.51446	3.0005529	20.3958	20.2827	7.080629	29.65479
159	6.50424	3.0053980	21.3763	21.2577	7.079514	29.71613
160	6.48402	3.0078767	22.3721	22.2479	7.080866	29.76037
161	6.46042	3.0157601	23.3739	23.2442	7.079919	29.86673
162	6.45278	3.0243695	24.3879	24.2525	7.076566	29.96719
163	6.45411	3.0276515	25.3959	25.2548	7.074761	30.00149
164	6.45442	3.0282608	26.3855	26.2389	7.074434	30.00745
165	6.45406	3.0286875	27.3783	27.2261	7.074285	30.01199
166	6.45483	3.0296258	28.4137	28.2556	7.073735	30.02112
167	6.45780	3.0306068	29.4276	29.2639	7.072883	30.02879
168	6.45944	3.0312468	30.4387	30.2692	7.072373	30.03390
169	6.45647	3.0318259	31.4527	31.2775	7.072479	30.04240
170	6.44837	3.0322162	32.4606	32.2798	7.073332	30.05335
171	6.45160	3.0384646	33.4930	33.3063	7.069790	30.11847
172	6.44283	3.0447301	34.5252	34.3327	7.067760	30.19440
173	6.42469	3.0469156	35.5697	35.3712	7.068977	30.23395
174	6.41746	3.0476364	36.6172	36.4129	7.069550	30.24778
175	6.41424	3.0480091	37.6648	37.4545	7.069792	30.25426
176	6.41311	3.0487116	38.7428	38.5263	7.069603	30.26248
177	6.40143	3.0523763	39.8086	39.5860	7.069251	30.31258
178	6.33803	3.0608114	40.8743	40.6457	7.073027	30.46130
179	6.27610	3.0647942	41.9279	41.6933	7.078867	30.56015
180	6.25762	3.0661407	42.9938	42.7532	7.080545	30.59111
181	6.23262	3.0716869	44.0930	43.8461	7.080905	30.67432
182	6.17201	3.0794864	45.1802	44.9271	7.084613	30.81483
183	6.13205	3.0820249	46.2429	45.9837	7.088394	30.87874
184	6.11582	3.0825710	47.3574	47.0918	7.090192	30.89904
185	6.11074	3.0828289	48.5176	48.2453	7.090729	30.90599
186	6.10763	3.0830317	49.6625	49.3837	7.091042	30.91053
187	6.09833	3.0847614	50.8135	50.5282	7.091357	30.93765
188	6.07373	3.0864610	51.9737	51.6816	7.093623	30.97841
189	6.06666	3.0867129	53.1340	52.8353	7.094413	30.98712
190	6.06362	3.0869894	54.2635	53.9583	7.094682	30.99244
191	6.05381	3.0876033	55.3994	55.0877	7.095632	31.00769
192	6.04691	3.0878859	56.5047	56.1866	7.096385	31.01663
193	6.04259	3.0883526	57.6163	57.2917	7.096716	31.02524
194	6.03365	3.0896354	58.7490	58.4179	7.097211	31.04715
195	6.01726	3.0913483	59.9457	59.6077	7.098431	31.08065
196	5.99778	3.0932150	61.1637	60.8187	7.099961	31.11872
197	5.98414	3.0939584	62.3664	62.0145	7.101332	31.13897
198	5.97694	3.0945851	63.5358	63.1770	7.101946	31.15201
199	5.97156	3.0951995	64.7385	64.3728	7.102335	31.16324
200	5.96158	3.0961396	65.9079	65.5354	7.103139	31.18235
201	5.94911	3.0970552	67.0893	66.7099	7.104271	31.20348
202	5.94253	3.0973812	68.2617	67.8755	7.104962	31.21263
203	5.93741	3.0979590	69.4767	69.0834	7.105338	31.22321
204	5.93346	3.0986106	70.6826	70.2822	7.105527	31.23356
205	5.93012	3.0988690	71.9065	71.4991	7.105844	31.23894
206	5.92642	3.0989616	73.1610	72.7462	7.106292	31.24280
207	5.91999	3.0995641	74.4340	74.0117	7.106822	31.25485
208	5.91245	3.1002589	75.6884	75.2588	7.107446	31.26898
209	5.90582	3.1008677	76.9826	76.5454	7.107999	31.28129
210	5.89954	3.1019804	78.2736	77.8288	7.108245	31.29891
211	5.89311	3.1026938	79.5373	79.0851	7.108717	31.31222
212	5.88816	3.1037515	80.7127	80.2536	7.108821	31.32806
213	5.88623	3.1042744	81.9066	81.4404	7.108820	31.33512
214	5.88416	3.1044531	83.1002	82.6270	7.109016	31.33847
215	5.88259	3.1047055	84.3182	83.8379	7.109110	31.34217
216	5.88097	3.1048412	85.5972	85.1093	7.109273	31.34458
217	5.88067	3.1049153	86.8791	86.3837	7.109301	31.34508
218	5.88047	3.1049895	88.1003	87.5977	7.109315	31.34552
219	5.88031	3.1050636	89.3974	88.8870	7.109324	31.34588
220	5.88006	3.1052054	90.6856	90.1676	7.109311	31.34709
221	5.87961	3.1052919	91.9615	91.4359	7.109352	31.34787
222	5.87905	3.1053968	93.2343	92.7011	7.109396	31.34896
223	5.87865	3.1055509	94.5252	93.9844	7.109395	31.35044
224	5.87733	3.1059510	95.8193	95.2708	7.109383	31.35552
225	5.87667	3.1062773	97.1256	96.5693	7.109325	31.35916
226	5.87551	3.1066466	98.4593	97.8951	7.109310	31.36373
227	5.87349	3.1070714	99.7717	99.1996	7.109374	31.36973
228	5.87005	3.1075822	101.0841	100.5042	7.109573	31.37800
229	5.86797	3.1077302	102.3661	101.7785	7.109787	31.38098
230	5.86701	3.1078659	103.6662	103.0708	7.109867	31.38277
231	5.86484	3.1080447	104.9816	104.3784	7.110079	31.38616
232	5.86272	3.1081558	106.3062	105.6949	7.110319	31.38875
233	5.86181	3.1083223	107.6400	107.0208	7.110377	31.39082
234	5.86074	3.1086057	108.9523	108.3252	7.110393	31.39435
235	5.86009	3.1086860	110.2768	109.6417	7.110464	31.39524
236	5.85999	3.1087110	111.6014	110.9583	7.110493	31.39498
237	5.85948	3.1088037	112.9259	112.2748	7.110538	31.39586
238	5.85832	3.1088840	114.2321	113.5731	7.110672	31.39722
239	5.85579	3.1090874	115.5050	114.8383	7.110915	31.40124
240	5.85013	3.1092478	116.7687	116.0943	7.111577	31.40769
241	5.84512	3.1090514	118.0446	117.3625	7.112341	31.40954
242	5.83901	3.1085229	119.3569	118.6669	7.113420	31.40869
243	5.83143	3.1082834	120.6509	119.9530	7.114535	31.41244
244	5.82991	3.1083146	121.9421	121.2363	7.114739	31.41359
245	5.83017	3.1084257	123.2056	122.4922	7.114677	31.41400
246	5.82774	3.1086414	124.4724	123.7513	7.114900	31.41806
247	5.81875	3.1086726	125.7208	124.9921	7.116052	31.42618
248	5.80936	3.1091282	126.9389	126.2028	7.117033	31.43943
249	5.80860	3.1094792	128.1659	127.4222	7.116974	31.44348
250	5.80941	3.1097810	129.3962	128.6450	7.116741	31.44553
251	5.81032	3.1100151	130.6232	129.8645	7.116531	31.44672
252	5.81057	3.1105938	131.8566	131.0903	7.116224	31.45238
253	5.80027	3.1105697	133.0958	132.3220	7.117571	31.46110
254	5.77493	3.1105026	134.3473	133.5658	7.120849	31.48336
255	5.77135	3.1114383	135.5988	134.8096	7.120843	31.49658
256	5.77690	3.1127124	136.8472	136.0503	7.119500	31.50509
257	5.78099	3.1133650	138.1352	137.3304	7.118669	31.50797
258	5.78164	3.1135870	139.4080	138.5954	7.118498	31.50924
259	5.78089	3.1136797	140.6899	139.8693	7.118574	31.51038
260	5.77735	3.1139632	141.9779	141.1494	7.118903	31.51624
261	5.77392	3.1139083	143.2689	142.4324	7.119395	31.51821
262	5.76746	3.1135333	144.5416	143.6973	7.120439	31.51943
263	5.76388	3.1136137	145.8143	144.9621	7.120880	31.52307
264	5.76171	3.1136080	147.1480	146.2875	7.121187	31.52440
265	5.75601	3.1132699	148.4636	147.5949	7.122117	31.52530
266	5.74759	3.1128396	149.7485	148.8718	7.123439	31.52773
267	5.73877	3.1125447	151.0516	150.1669	7.124743	31.53205
268	5.73640	3.1125266	152.3639	151.4710	7.125083	31.53343
269	5.72839	3.1121394	153.6550	152.7540	7.126332	31.53596
270	5.72365	3.1122752	154.9612	154.0521	7.126892	31.54129
271	5.72395	3.1124848	156.2826	155.3652	7.126773	31.54273
272	5.72521	3.1129652	157.5796	156.6541	7.126390	31.54633
273	5.72738	3.1133718	158.8950	157.9613	7.125931	31.54824
274	5.72168	3.1131076	160.2196	159.2776	7.126823	31.54997
275	5.71543	3.1124926	161.5287	160.5785	7.127968	31.54828
276	5.71115	3.1127885	162.8381	161.8796	7.128386	31.55498
277	5.71075	3.1126842	164.1717	163.2049	7.128522	31.55356
278	5.70929	3.1132570	165.5265	164.5511	7.128437	31.56071
279	5.71292	3.1138298	166.8845	165.9006	7.127706	31.56310
280	5.71760	3.1145072	168.2332	167.2408	7.126786	31.56567
281	5.71473	3.1133874	169.5942	168.5932	7.127768	31.55515
282	5.69695	3.1124464	170.9644	169.9548	7.130552	31.56057
283	5.68874	3.1117023	172.3405	171.3222	7.132017	31.55924
284	5.68154	3.1112352	173.6985	172.6716	7.133209	31.56008
285	5.67525	3.1107557	175.0076	173.9724	7.134290	31.55996
286	5.66951	3.1103562	176.2987	175.2553	7.135259	31.56023
287	5.65808	3.1090649	177.5989	176.5473	7.137422	31.55579
288	5.64807	3.1090715	178.8805	177.8208	7.138722	31.56462
289	5.65154	3.1101176	180.1321	179.0644	7.137758	31.57253
290	5.65864	3.1106778	181.3408	180.2654	7.136587	31.57161
291	5.66498	3.1123086	182.5528	181.4697	7.134949	31.58342
292	5.68008	3.1138659	183.7827	182.6918	7.132238	31.58619
293	5.68562	3.1142047	185.0191	183.9202	7.131383	31.58422
294	5.69277	3.1156947	186.2673	185.1605	7.129720	31.59366
295	5.70506	3.1170064	187.5248	186.4100	7.127498	31.59628
296	5.71669	3.1181027	188.7792	187.6563	7.125473	31.59710
297	5.72385	3.1191376	190.0580	188.9269	7.124051	31.60140
298	5.73413	3.1198462	191.3429	190.2036	7.122404	31.59912
299	5.73882	3.1202838	192.6216	191.4741	7.121608	31.59904
300	5.74008	3.1202904	193.8942	192.7385	7.121473	31.59733
301	5.73927	3.1202477	195.1882	194.0242	7.121626	31.59699
302	5.73867	3.1203589	196.4823	195.3099	7.121674	31.59819
303	5.74134	3.1210800	197.7458	196.5653	7.120985	31.60318
304	5.75087	3.1222138	198.7901	197.6029	7.119207	31.60647
305	5.75546	3.1223371	199.0890	197.8999	7.118568	31.60342
306	5.75627	3.1223555	199.1565	197.9669	7.118457	31.60284
307	5.75687	3.1223925	199.2453	198.0551	7.118363	31.60265
308	5.75662	3.1223310	199.3279	198.1372	7.118429	31.60216
309	5.75687	3.1224296	199.4135	198.2222	7.118347	31.60299
310	5.75823	3.1223002	199.4963	198.3046	7.118244	31.60022
311	5.75743	3.1225159	199.5697	198.3775	7.118235	31.60336
312	5.75722	3.1224604	199.4882	198.2965	7.118288	31.60297
313	5.76035	3.1229224	199.2330	198.0430	7.117645	31.60534
314	5.76126	3.1226696	198.8652	197.6775	7.117654	31.60183
315	5.76065	3.1227558	198.4670	197.2819	7.117676	31.60355
316	5.76000	3.1226016	197.9927	196.8106	7.117830	31.60266
317	5.75803	3.1222934	197.4393	196.2608	7.118228	31.60131
318	5.75511	3.1219606	196.8950	195.7200	7.118761	31.60057
319	5.75173	3.1214861	196.3233	195.1520	7.119424	31.59869
320	5.74800	3.1210485	195.7151	194.5477	7.120113	31.59756
321	5.74537	3.1208574	195.1192	193.9557	7.120532	31.59815
322	5.74346	3.1205431	194.4439	193.2847	7.120925	31.59674
323	5.74129	3.1203950	193.6987	192.5443	7.121261	31.59746
324	5.74074	3.1203332	192.9261	191.7766	7.121346	31.59766
325	5.74023	3.1201790	192.0896	190.9455	7.121472	31.59679
326	5.73897	3.1200370	191.2319	190.0933	7.121687	31.59679
327	5.73857	3.1199321	190.3467	189.2138	7.121774	31.59641
328	5.73534	3.1193960	189.4643	188.3370	7.122444	31.59383
329	5.73141	3.1190509	188.5731	187.4515	7.123104	31.59407
330	5.72733	3.1184040	187.6818	186.5659	7.123941	31.59105
331	5.71987	3.1174863	186.7875	185.6773	7.125349	31.58816
332	5.71357	3.1168888	185.8839	184.7795	7.126442	31.58778
333	5.70546	3.1154172	184.9927	183.8940	7.128224	31.57928
334	5.69312	3.1144198	184.0920	182.9991	7.130295	31.58006
335	5.68839	3.1139518	183.2008	182.1135	7.131123	31.57966
336	5.68300	3.1131392	182.3002	181.2187	7.132214	31.57600
337	5.67756	3.1122343	181.4028	180.3270	7.133361	31.57136
338	5.66875	3.1111758	180.5024	179.4323	7.135018	31.56814
339	5.66291	3.1105726	179.6019	178.5376	7.136058	31.56726
340	5.65728	3.1097911	178.6983	177.6397	7.137167	31.56418
341	5.65124	3.1091511	177.7917	176.7389	7.138252	31.56307
342	5.64988	3.1091816	176.8820	175.8350	7.138389	31.56512
343	5.65678	3.1100179	175.9633	174.9221	7.137051	31.56850
344	5.66714	3.1105220	175.0507	174.0152	7.135446	31.56490
345	5.67157	3.1107555	174.1317	173.1021	7.134739	31.56381
346	5.67535	3.1110751	173.2099	172.1861	7.134070	31.56431
347	5.67952	3.1114193	172.2910	171.2730	7.133337	31.56470
348	5.68365	3.1116898	171.3570	170.3449	7.132649	31.56432
349	5.68642	3.1119171	170.4322	169.4260	7.132157	31.56472
350	5.69257	3.1126429	169.5012	168.5008	7.130974	31.56756
351	5.70178	3.1135411	168.5732	167.5787	7.129310	31.56946
352	5.71276	3.1142054	167.6424	166.6537	7.127545	31.56709
353	5.71715	3.1139466	166.6505	165.6681	7.127102	31.56056
354	5.71548	3.1134970	165.6341	164.6581	7.127526	31.55755
355	5.71236	3.1130413	164.6118	163.6423	7.128139	31.55585
356	5.70929	3.1126164	163.5773	162.6142	7.128730	31.55444
357	5.71014	3.1126468	162.5153	161.5589	7.128581	31.55449
358	5.71155	3.1125111	161.4139	160.4644	7.128449	31.55217
359	5.71196	3.1125784	160.2576	159.3154	7.128337	31.55310
360	5.71690	3.1130211	159.0648	158.1300	7.127451	31.55402
361	5.72148	3.1132054	157.8780	156.9507	7.126745	31.55236
362	5.72652	3.1128295	156.6730	155.7532	7.126275	31.54401
363	5.72561	3.1124969	155.4773	154.5649	7.126538	31.54170
364	5.72501	3.1122811	154.2784	153.3735	7.126701	31.54041
365	5.72405	3.1120531	153.0824	152.1850	7.126916	31.53931
366	5.72526	3.1120343	151.8744	150.9845	7.126745	31.53855
367	5.73317	3.1124646	150.6694	149.7870	7.125488	31.53655
368	5.73811	3.1126550	149.4676	148.5926	7.124734	31.53465
369	5.74563	3.1130669	148.2624	147.3950	7.123537	31.53282
370	5.75233	3.1132757	147.1183	146.2579	7.122551	31.52944
371	5.75899	3.1134169	146.0048	145.1513	7.121608	31.52534
372	5.76187	3.1133796	144.9212	144.0744	7.121238	31.52275
373	5.76323	3.1133485	143.8318	142.9918	7.121058	31.52165
374	5.76817	3.1137604	142.7425	141.9093	7.120191	31.52217
375	5.77367	3.1138155	141.6561	140.8296	7.119440	31.51817
376	5.77619	3.1135997	140.5668	139.7470	7.119209	31.51392
377	5.77947	3.1134947	139.4743	138.6612	7.118823	31.51020
378	5.78104	3.1134328	138.3940	137.5876	7.118633	31.50856
379	5.78164	3.1130140	137.3016	136.5019	7.118751	31.50383
380	5.78048	3.1122998	136.1999	135.4070	7.119247	31.49743
381	5.77710	3.1114442	135.1107	134.3244	7.120099	31.49152
382	5.77236	3.1106810	134.0212	133.2416	7.121075	31.48791
383	5.77090	3.1101454	132.9257	132.1529	7.121517	31.48379
384	5.78588	3.1105018	131.8180	131.0520	7.119404	31.47434
385	5.80385	3.1101260	130.7011	129.9419	7.117294	31.45394
386	5.80981	3.1098057	129.5781	128.8258	7.116681	31.44534
387	5.81011	3.1095716	128.4583	127.7128	7.116740	31.44297
388	5.80915	3.1093129	127.3384	126.5998	7.116972	31.44150
389	5.80825	3.1089865	126.2094	125.4777	7.117232	31.43923
390	5.80835	3.1085064	125.0896	124.3647	7.117445	31.43429
391	5.81562	3.1084691	123.9635	123.2455	7.116517	31.42764
392	5.82456	3.1083149	122.8374	122.1263	7.115438	31.41814
393	5.82865	3.1081731	121.7114	121.0071	7.114968	31.41329
394	5.83012	3.1081297	120.5792	119.8818	7.114780	31.41198
395	5.83153	3.1083815	119.4594	118.7687	7.114445	31.41401
396	5.83805	3.1088055	118.3273	117.6435	7.113372	31.41323
397	5.84118	3.1088174	117.1922	116.5153	7.112944	31.41099
398	5.84285	3.1088601	116.0540	115.3840	7.112685	31.41045
399	5.84902	3.1088536	114.9218	114.2586	7.111882	31.40519
400	5.85453	3.1085949	113.7867	113.1304	7.111293	31.39772
401	5.85817	3.1084961	112.6546	112.0052	7.110858	31.39377
402	5.86019	3.1084711	111.5163	110.8738	7.110590	31.39215
403	5.86064	3.1083970	110.3750	109.7393	7.110546	31.39144
404	5.86049	3.1083843	109.2520	108.6230	7.110547	31.39197
405	5.86024	3.1083348	108.1290	107.5069	7.110580	31.39218
406	5.86024	3.1082852	107.0030	106.3876	7.110581	31.39216
407	5.86064	3.1081865	105.8982	105.2894	7.110557	31.39121
408	5.86145	3.1080139	104.7996	104.1974	7.110520	31.38905
409	5.86347	3.1078414	103.7008	103.1052	7.110329	31.38576
410	5.86514	3.1076934	102.6053	102.0162	7.110171	31.38308
411	5.86570	3.1076378	101.5067	100.9242	7.110105	31.38246
412	5.86580	3.1075575	100.4048	99.8289	7.110110	31.38199
413	5.86620	3.1073542	99.3061	98.7368	7.110140	31.37986
414	5.86883	3.1068373	98.2075	97.6447	7.110051	31.37217
415	5.87222	3.1064987	97.0752	96.5193	7.109773	31.36578
416	5.87450	3.1061048	95.9704	95.4210	7.109665	31.35979
417	5.87561	3.1057539	94.8656	94.3228	7.109682	31.35536
418	5.87672	3.1053478	93.7518	93.2155	7.109728	31.35032
419	5.87834	3.1051322	92.6287	92.0991	7.109610	31.34694
420	5.87925	3.1050704	91.5086	90.9857	7.109502	31.34594
421	5.87940	3.1050147	90.3794	89.8632	7.109487	31.34571
422	5.87961	3.1049283	89.2532	88.7437	7.109481	31.34509
423	5.87996	3.1048112	88.1302	87.6273	7.109473	31.34398
424	5.87986	3.1047371	86.9888	86.4927	7.109499	31.34379
425	5.88001	3.1046445	85.8565	85.3671	7.109503	31.34315
426	5.87996	3.1045950	84.7000	84.2174	7.109509	31.34319
427	5.88037	3.1044901	83.5769	83.1009	7.109488	31.34218
428	5.88123	3.1042439	82.4477	81.9784	7.109482	31.33916
429	5.88350	3.1039116	81.3215	80.8588	7.109342	31.33387
430	5.88552	3.1036530	80.1923	79.7363	7.109195	31.32965
431	5.88644	3.1029704	79.0448	78.5955	7.109409	31.32172
432	5.88988	3.1019743	77.8943	77.4518	7.109465	31.30796
433	5.89514	3.1010766	76.7772	76.3412	7.109239	31.29360
434	5.90025	3.1004372	75.6723	75.2428	7.108899	31.28225
435	5.90511	3.0998285	74.5705	74.1474	7.108575	31.27149
436	5.91042	3.0992506	73.4686	73.0519	7.108177	31.26065
437	5.91776	3.0986542	72.3668	71.9567	7.107531	31.24774
438	5.92490	3.0984634	71.2711	70.8673	7.106701	31.23953
439	5.92910	3.0979900	70.1691	69.7718	7.106390	31.23090
440	5.93209	3.0976395	69.0704	68.6794	7.106169	31.22475
441	5.93538	3.0969880	67.9837	67.5991	7.106065	31.21496
442	5.94126	3.0964226	66.9396	66.5611	7.105591	31.20373
443	5.94850	3.0956668	65.9048	65.5322	7.105041	31.18912
444	5.95737	3.0948436	64.8576	64.4912	7.104320	31.17227
445	5.96781	3.0940203	63.7894	63.4291	7.103400	31.15400
446	5.97359	3.0937253	62.7240	62.3700	7.102797	31.14590
447	5.97673	3.0935162	61.6435	61.2957	7.102483	31.14119
448	5.97993	3.0928712	60.5750	60.2334	7.102388	31.13157
449	5.99113	3.0911765	59.5035	59.1681	7.101821	31.10292
450	6.00904	3.0896233	58.4291	58.0999	7.100330	31.06972
451	6.02218	3.0886902	57.3576	57.0346	7.099122	31.04780
452	6.02934	3.0882050	56.2892	55.9724	7.098442	31.03635
453	6.03416	3.0876157	55.2118	54.9012	7.098112	31.02589
454	6.03990	3.0871859	54.1311	53.8266	7.097583	31.01637
455	6.04645	3.0866763	53.0962	52.7977	7.096993	31.00520
456	6.05640	3.0861300	52.1038	51.8110	7.095991	30.99050
457	6.06336	3.0856512	51.0993	50.8123	7.095334	30.97929
458	6.07073	3.0843076	50.0948	49.8135	7.095071	30.95812
459	6.09060	3.0825411	49.0813	48.8058	7.093440	30.92087
460	6.10189	3.0821729	48.0980	47.8282	7.092178	30.90696
461	6.10641	3.0818905	47.0934	46.8293	7.091728	30.90018
462	6.11023	3.0815101	46.1164	45.8579	7.091419	30.89294
463	6.11903	3.0801427	45.1453	44.8924	7.090985	30.87023
464	6.13063	3.0781566	44.1622	43.9149	7.090514	30.83814
465	6.16544	3.0713567	43.1851	42.9433	7.089566	30.73176
466	6.21773	3.0657982	42.2140	41.9778	7.085759	30.62359
467	6.24563	3.0640112	41.2459	41.0152	7.083113	30.57921
468	6.26818	3.0599498	40.2840	40.0588	7.082303	30.51461
469	6.32397	3.0520165	39.2947	39.0751	7.079242	30.37781
470	6.38453	3.0481317	38.3206	38.1065	7.073509	30.28166
471	6.40409	3.0474841	37.3162	37.1079	7.071336	30.25765
472	6.41019	3.0467451	36.3268	36.1240	7.070917	30.24459
473	6.41536	3.0458841	35.3437	35.1465	7.070676	30.23100
474	6.42136	3.0432108	34.3632	34.1716	7.071247	30.19682
475	6.44109	3.0371232	33.3741	33.1880	7.071798	30.11310
476	6.44755	3.0330937	32.3787	32.1983	7.072992	30.06372
477	6.44160	3.0313386	31.3984	31.2235	7.074614	30.05017
478	6.44396	3.0311312	30.4182	30.2489	7.074398	30.04627
479	6.45150	3.0303388	29.4319	29.2681	7.073820	30.03140
480	6.45257	3.0298816	28.4396	28.2814	7.073893	30.02589
481	6.45185	3.0293819	27.4258	27.2733	7.074216	30.02151
482	6.45175	3.0290770	26.4334	26.2865	7.074362	30.01871
483	6.45139	3.0283093	25.4380	25.2967	7.074775	30.01106
484	6.44893	3.0271276	24.4396	24.3039	7.075664	30.00074
485	6.44606	3.0244302	23.4563	23.3261	7.077371	29.97417
486	6.44478	3.0180468	22.4699	22.3453	7.080738	29.90585
487	6.45380	3.0095657	21.4927	21.3735	7.083851	29.80558
488	6.47878	3.0070804	20.5156	20.4019	7.081897	29.75706
489	6.49628	3.0015786	19.5412	19.4330	7.082417	29.68215
490	6.50562	2.9917750	18.5703	18.4674	7.086142	29.56745
491	6.50604	2.9850542	17.5839	17.4866	7.089456	29.49419
492	6.50727	2.9771709	16.6158	16.5239	7.093251	29.40756
493	6.50367	2.9671618	15.6417	15.5552	7.098739	29.30194
494	6.50829	2.9603228	14.6705	14.5894	7.101572	29.22387
495	6.50629	2.9498765	13.6903	13.6147	7.107078	29.11220
496	6.45488	2.9403541	12.7343	12.6640	7.118519	29.05262
497	6.42612	2.9359522	11.8393	11.7739	7.124458	29.02946
498	6.43504	2.9337669	10.9261	10.8658	7.124389	28.99844
499	6.45524	2.9323222	10.0127	9.9575	7.122481	28.96594
500	6.48135	2.9263669	9.1664	9.1158	7.122086	28.87931
501	6.47283	2.9131261	8.3963	8.3500	7.129871	28.74268
502	6.30915	2.8874669	7.6992	7.6567	7.164317	28.60080
503	6.02776	2.8672321	7.0841	7.0451	7.211925	28.61612
504	6.04909	2.8704189	6.4571	6.4215	7.207426	28.63345
505	6.28146	2.8891360	5.7295	5.6980	7.167065	28.64317
506	6.59433	2.8866080	5.0141	4.9865	7.127328	28.35473
507	6.76803	2.8829879	4.2987	4.2751	7.106481	28.17267
508	6.97366	2.8852104	3.5528	3.5332	7.078680	28.02880
509	7.12498	2.8813938	2.7733	2.7581	7.060981	27.86569
510	7.17045	2.8798330	1.9940	1.9830	7.055863	27.81273
511	7.22553	2.8797366	1.2026	1.1959	7.048798	27.76775
512	7.21310	2.8804000	0.4139	0.4116	7.050061	27.78512
513	7.17400	0.8820659	0.1400	0.1392	8.038751	7.68461
514	7.15626	1.6797295	0.1340	0.1333	7.648428	15.42760
515	7.11956	0.5374141	0.1342	0.1335	8.216132	4.52478
516	7.10414	0.3963850	0.1341	0.1334	8.286303	3.27226
517	7.08873	0.3052931	0.1342	0.1335	8.332129	2.48080
518	7.07675	0.2409036	0.1342	0.1335	8.364368	1.93122
519	7.06494	0.2302992	0.1343	0.1336	8.371653	1.84212
520	7.08414	0.2286970	0.1314	0.1306	8.368462	1.82757
521	7.16763	0.2031814	0.1314	0.1307	8.363029	1.60916
522	7.16998	0.1526336	0.1344	0.1337	8.385269	1.19058
523	7.19858	0.1321023	0.1347	0.1339	8.388491	1.02214
