Scan Count	Temperature [ITS-90, deg C]	Conductivity [S/m]	Pressure, Strain Gauge [db]	Depth [salt water, m]	Oxygen Saturation, Weiss [ml/l]	Salinity, Practical [PSU]
1	16.77005	0.0002044	0.0059	0.0059	6.785533	0.00882
2	16.71431	0.0002198	0.0059	0.0058	6.793501	0.00884
3	16.65920	0.0003216	0.0059	0.0059	6.801384	0.00914
4	16.60809	0.0003925	0.0089	0.0089	6.808712	0.00936
5	16.59631	0.0003894	0.0059	0.0058	6.810405	0.00935
6	16.43912	0.0276690	0.0242	0.0240	6.826845	0.15972
7	14.30681	2.2825551	0.1489	0.1480	6.414777	17.73519
8	13.59327	2.7797001	0.2281	0.2268	6.326569	22.42490
9	12.93940	2.9147975	0.3985	0.3963	6.351365	24.03579
10	12.65334	2.9305398	0.6663	0.6626	6.377388	24.36206
11	12.90648	2.9462844	0.6510	0.6474	6.343697	24.34309
12	12.91145	2.9593394	0.7028	0.6989	6.338463	24.45880
13	12.86077	2.9550240	0.6754	0.6717	6.345586	24.45214
14	12.91830	2.9566892	0.7089	0.7050	6.338662	24.43024
15	13.02585	2.9416613	0.6602	0.6566	6.332226	24.22474
16	13.09235	2.9611190	0.7150	0.7111	6.318006	24.35878
17	13.21642	2.9384793	0.6542	0.6506	6.312470	24.07507
18	13.22088	2.9583946	0.7151	0.7111	6.304943	24.25211
19	13.30152	2.9499464	0.6572	0.6536	6.299137	24.12477
20	13.18033	2.9629905	0.7272	0.7232	6.307738	24.31950
21	13.25396	2.9541574	0.6512	0.6476	6.302834	24.19286
22	13.15756	2.9621451	0.7120	0.7081	6.310520	24.32638
23	13.34424	2.9588703	0.6664	0.6628	6.291353	24.17817
24	13.25671	2.9635274	0.7182	0.7143	6.299230	24.27568
25	13.34601	2.9542108	0.6482	0.6446	6.292796	24.13509
26	13.25537	2.9413760	0.7213	0.7173	6.307192	24.07661
27	13.22602	2.9423582	0.6909	0.6871	6.310050	24.10402
28	13.19376	2.9431900	0.6696	0.6659	6.313282	24.13194
29	13.19846	2.9369139	0.7153	0.7114	6.314989	24.07226
30	13.27648	2.9305880	0.6727	0.6690	6.308690	23.96608
31	13.33510	2.9359675	0.7154	0.7114	6.300395	23.97771
32	13.38983	2.9352205	0.6667	0.6631	6.294691	23.93671
33	13.45417	2.9263043	0.7215	0.7175	6.290804	23.81650
34	13.50489	2.9375733	0.6698	0.6662	6.281356	23.88594
35	13.52387	2.9123009	0.7003	0.6965	6.288095	23.64790
36	13.57111	2.9244214	0.6790	0.6753	6.278742	23.72711
37	13.61087	2.9021037	0.7309	0.7269	6.282162	23.50332
38	13.66243	2.9173787	0.6549	0.6513	6.271269	23.60793
39	13.70787	2.8871084	0.7280	0.7240	6.276786	23.31065
40	13.75746	2.9176841	0.6763	0.6726	6.260868	23.55234
41	13.76937	2.8832083	0.7008	0.6969	6.271436	23.23879
42	13.79495	2.9097900	0.6917	0.6879	6.259525	23.45928
43	13.79768	2.8875563	0.6857	0.6819	6.266865	23.26028
44	13.81209	2.8986860	0.7223	0.7183	6.261481	23.35029
45	13.82178	2.8893092	0.6737	0.6700	6.263646	23.26127
46	13.83235	2.8910207	0.7073	0.7034	6.261913	23.27005
47	13.83533	2.9014543	0.6860	0.6823	6.258013	23.36076
48	13.83726	2.8963735	0.7014	0.6975	6.259546	23.31453
49	13.84379	2.9049072	0.6893	0.6855	6.255915	23.38624
50	13.84957	2.8927865	0.7228	0.7189	6.259441	23.27529
51	13.87184	2.9042174	0.6742	0.6705	6.253117	23.36311
52	13.86886	2.8945107	0.7139	0.7100	6.256762	23.27892
53	13.86624	2.8889378	0.6866	0.6829	6.258952	23.23114
54	13.84367	2.8970683	0.7293	0.7253	6.258615	23.31681
55	13.85480	2.8929181	0.6838	0.6800	6.258830	23.27331
56	13.84628	2.8854382	0.6961	0.6923	6.262316	23.21218
57	13.83080	2.8904282	0.7175	0.7136	6.262285	23.26573
58	13.85187	2.8908350	0.6780	0.6743	6.259860	23.25662
59	13.84342	2.8875199	0.7146	0.7107	6.261913	23.23234
60	13.85716	2.8917627	0.6813	0.6776	6.258969	23.26165
61	13.85623	2.8824063	0.7058	0.7019	6.262274	23.17933
62	13.85131	2.8909188	0.7150	0.7111	6.259892	23.25769
63	13.87757	2.8996201	0.6664	0.6628	6.254070	23.31892
64	13.88529	2.8825973	0.7244	0.7204	6.259056	23.16354
65	13.86432	2.8956066	0.7123	0.7084	6.256878	23.29137
66	13.88143	2.8888299	0.6790	0.6752	6.257343	23.22104
67	13.87048	2.8815393	0.7035	0.6996	6.261025	23.16309
68	13.85026	2.8951696	0.7279	0.7239	6.258551	23.29599
69	13.89774	2.8997877	0.6794	0.6756	6.251832	23.30820
70	13.91101	2.8999194	0.7008	0.6969	6.250353	23.30134
71	13.92328	2.9025144	0.7009	0.6970	6.248141	23.31689
72	13.94049	2.8978461	0.6767	0.6730	6.247874	23.26521
73	13.92073	2.8981638	0.7438	0.7397	6.249902	23.27993
74	13.93531	2.9012076	0.6465	0.6430	6.247287	23.29807
75	13.89861	2.8973193	0.7349	0.7308	6.252581	23.28581
76	13.87353	2.9018075	0.6650	0.6613	6.253760	23.34075
77	13.87334	2.8940256	0.7108	0.7069	6.256442	23.27192
78	13.86506	2.9013521	0.6896	0.6858	6.254831	23.34183
79	13.88629	2.9028204	0.6928	0.6890	6.252034	23.34198
80	13.89712	2.8987571	0.6929	0.6891	6.252251	23.29945
81	13.88927	2.8993863	0.7265	0.7226	6.252885	23.30975
82	13.90490	2.9025445	0.6597	0.6560	6.250115	23.32828
83	13.90783	2.8982298	0.7208	0.7168	6.251273	23.28830
84	13.90223	2.9000933	0.6904	0.6866	6.251242	23.30819
85	13.89531	2.8968521	0.7149	0.7110	6.253098	23.28367
86	13.88834	2.8888897	0.6968	0.6929	6.256574	23.21740
87	13.88759	2.8941632	0.7030	0.6991	6.254852	23.26453
88	13.89345	2.8803794	0.7062	0.7024	6.258930	23.13903
89	13.89793	2.8946002	0.7003	0.6964	6.253584	23.26216
90	13.90684	2.8874356	0.6791	0.6753	6.255067	23.19341
91	13.90490	2.8899308	0.7340	0.7300	6.254425	23.21663
92	13.90814	2.8834820	0.6793	0.6756	6.256276	23.15765
93	13.90509	2.8837392	0.7069	0.7030	6.256519	23.16175
94	13.89868	2.8878305	0.7161	0.7122	6.255816	23.20180
95	13.91076	2.8779947	0.6828	0.6791	6.257866	23.10756
96	13.90297	2.8874117	0.7164	0.7125	6.255494	23.19551
97	13.91008	2.8821965	0.6922	0.6884	6.256505	23.14512
98	13.91070	2.8853120	0.7167	0.7128	6.255374	23.17229
99	13.91363	2.8898708	0.6895	0.6857	6.253500	23.21086
100	13.91082	2.8815329	0.7262	0.7222	6.256651	23.13880
101	13.89824	2.8880878	0.6837	0.6800	6.255775	23.20435
102	13.89239	2.8816646	0.7173	0.7134	6.258605	23.15103
103	13.88193	2.8879085	0.7114	0.7075	6.257604	23.21257
104	13.89643	2.8870947	0.6963	0.6925	6.256310	23.19664
105	13.90054	2.8835539	0.7118	0.7078	6.257075	23.16284
106	13.89917	2.8856231	0.6906	0.6868	6.256516	23.18198
107	13.89519	2.8827049	0.7272	0.7232	6.257946	23.15855
108	13.89158	2.8864666	0.7000	0.6961	6.257051	23.19401
109	13.90048	2.8831174	0.6940	0.6902	6.257231	23.15903
110	13.89506	2.8844808	0.7276	0.7236	6.257352	23.17433
111	13.90540	2.8872023	0.6852	0.6814	6.255302	23.19221
112	13.90833	2.8837511	0.7218	0.7179	6.256164	23.15991
113	13.90434	2.8840382	0.7037	0.6999	6.256498	23.16485
114	13.89376	2.8818081	0.7313	0.7273	6.258408	23.15147
115	13.89220	2.8845407	0.6858	0.6821	6.257642	23.17660
116	13.88790	2.8756350	0.7468	0.7427	6.261153	23.10037
117	13.88828	2.8850251	0.6922	0.6884	6.257902	23.18324
118	13.87975	2.8701712	0.7045	0.7006	6.263907	23.05694
119	13.82452	2.8836443	0.7382	0.7341	6.265293	23.20938
120	13.86027	2.8838532	0.6987	0.6949	6.261340	23.18971
121	13.87147	2.8782102	0.7263	0.7223	6.262056	23.13302
122	13.86239	2.8814676	0.6960	0.6921	6.261927	23.16732
123	13.86419	2.8663996	0.7113	0.7074	6.266890	23.03287
124	13.84995	2.8764717	0.7237	0.7197	6.264989	23.13055
125	13.86463	2.8592074	0.7117	0.7078	6.269304	22.96899
126	13.87633	2.8710487	0.7118	0.7079	6.263979	23.06674
127	13.88454	2.8488958	0.6936	0.6898	6.270663	22.86601
128	13.88541	2.8411491	0.7455	0.7414	6.273218	22.79704
129	13.89145	2.8416485	0.6818	0.6780	6.272387	22.79790
130	13.87614	2.8427431	0.7306	0.7266	6.273685	22.81661
131	13.87813	2.8426122	0.7064	0.7025	6.273512	22.81429
132	13.86886	2.8429513	0.7157	0.7118	6.274408	22.82277
133	13.87471	2.8427193	0.7067	0.7028	6.273849	22.81726
134	13.87471	2.8426360	0.7221	0.7181	6.273878	22.81652
135	13.87259	2.8425587	0.7192	0.7153	6.274135	22.81709
136	13.88896	2.8412858	0.7010	0.6972	6.272783	22.79616
137	13.91799	2.8407146	0.7347	0.7307	6.269811	22.77396
138	13.90665	2.8404709	0.7075	0.7036	6.271131	22.77852
139	13.91905	2.8400546	0.7137	0.7098	6.269921	22.76752
140	13.91743	2.8401676	0.7169	0.7129	6.270059	22.76947
141	13.91967	2.8400486	0.7140	0.7101	6.269855	22.76710
142	13.92098	2.8393411	0.7294	0.7254	6.269954	22.76008
143	13.92734	2.8397156	0.7082	0.7043	6.269133	22.75964
144	13.92129	2.8400189	0.9549	0.9496	6.269691	22.76581
145	13.85212	2.8520283	1.8041	1.7942	6.273138	22.91263
146	13.46395	2.9035204	2.8755	2.8597	6.297721	23.60561
147	12.05979	3.0253495	3.9530	3.9312	6.408330	25.63290
148	11.35732	3.0420247	5.0456	5.0178	6.480523	26.27991
149	10.74912	3.0828252	6.1505	6.1166	6.533198	27.11315
150	10.29395	3.1004586	7.2310	7.1912	6.577918	27.62650
151	9.69181	3.1419112	8.3450	8.2990	6.629753	28.50502
152	9.38631	3.1619299	9.4864	9.4341	6.656457	28.95069
153	9.11397	3.1796699	10.6217	10.5630	6.680293	29.35276
154	8.65499	3.1797309	11.7570	11.6921	6.733727	29.73462
155	8.38760	3.1718896	12.9075	12.8362	6.768697	29.87841
156	7.96866	3.1657913	14.0823	14.0045	6.821200	30.17220
157	7.73701	3.1647721	15.2450	15.1607	6.849396	30.36166
158	7.63361	3.1630645	16.4107	16.3199	6.862637	30.43324
159	7.51605	3.1581204	17.5765	17.4792	6.879161	30.48301
160	7.23133	3.1487110	18.7574	18.6535	6.918191	30.63268
161	6.89476	3.1413813	19.9049	19.7946	6.962929	30.85306
162	6.77800	3.1384624	21.0432	20.9266	6.978753	30.92578
163	6.64530	3.1327064	22.1755	22.0525	6.998019	30.98225
164	6.52601	3.1296241	23.3138	23.1844	7.014368	31.05613
165	6.48797	3.1279415	24.4643	24.3285	7.019963	31.07172
166	6.46852	3.1268138	25.5966	25.4544	7.022972	31.07650
167	6.39058	3.1188542	26.7258	26.5773	7.036722	31.05936
168	6.20391	3.1111926	27.8916	27.7365	7.064008	31.14476
169	6.12564	3.1098895	29.0481	28.8865	7.074537	31.20161
170	6.11699	3.1100006	30.1835	30.0154	7.075593	31.21026
171	6.12447	3.1096502	31.2884	31.1141	7.074855	31.19898
172	6.11018	3.1087649	32.4207	32.2400	7.077133	31.20176
173	6.10331	3.1088945	33.5681	33.3810	7.077956	31.20897
174	6.11089	3.1092515	34.7157	34.5220	7.076844	31.20543
175	6.11511	3.1094302	35.8632	35.6631	7.076245	31.20299
176	6.11699	3.1094859	37.0047	36.7982	7.076005	31.20134
177	6.11775	3.1095293	38.1674	37.9542	7.075912	31.20058
178	6.11302	3.1088899	39.3210	39.1013	7.076860	31.19729
179	6.09980	3.1084476	40.4655	40.2393	7.078777	31.20400
180	6.09462	3.1083864	41.6070	41.3743	7.079486	31.20755
181	6.09365	3.1082884	42.7302	42.4911	7.079683	31.20682
182	6.09228	3.1082211	43.8413	43.5958	7.079915	31.20682
183	6.08684	3.1078155	44.9524	44.7005	7.080832	31.20679
184	6.06956	3.1062663	46.0847	45.8265	7.083832	31.20494
185	6.02183	3.1045886	47.2232	46.9584	7.090744	31.22970
186	5.98348	3.1027328	48.3556	48.0843	7.096573	31.24387
187	5.92526	3.1009392	49.4759	49.1982	7.104894	31.27711
188	5.89438	3.1001717	50.6113	50.3271	7.109230	31.29656
189	5.87521	3.0993121	51.7286	51.4380	7.112133	31.30418
190	5.83633	3.0981947	52.8459	52.5489	7.117673	31.32718
191	5.79658	3.0968870	53.9692	53.6657	7.123431	31.34889
192	5.77836	3.0965129	55.0805	54.7706	7.125969	31.36109
193	5.71669	3.0923569	56.1947	55.8784	7.136024	31.37130
194	5.60483	3.0892159	57.3029	56.9802	7.151988	31.43974
195	5.55199	3.0878546	58.4019	58.0729	7.159496	31.47328
196	5.51863	3.0870884	59.5284	59.1928	7.164203	31.49534
197	5.48865	3.0841326	60.6274	60.2855	7.169645	31.48955
198	5.44101	3.0821345	61.7508	61.4024	7.176854	31.51111
199	5.41734	3.0815158	62.8469	62.4921	7.180254	31.52582
200	5.40588	3.0813262	63.9156	63.5546	7.181854	31.53392
201	5.39228	3.0824793	64.9904	64.6231	7.183014	31.55925
202	5.38937	3.0831541	66.1015	65.7279	7.183052	31.56909
203	5.38572	3.0831299	67.1793	66.7994	7.183559	31.57173
204	5.39163	3.0851110	68.2328	67.8467	7.181766	31.58810
205	5.41959	3.0879205	69.2802	68.8880	7.176695	31.59307
206	5.42955	3.0880189	70.3489	69.9506	7.175387	31.58430
207	5.42955	3.0881665	71.4663	71.0614	7.175334	31.58543
208	5.43080	3.0884306	72.5777	72.1663	7.175057	31.58670
209	5.43210	3.0895600	73.6585	73.2408	7.174313	31.59773
210	5.43235	3.0895542	74.7364	74.3124	7.174308	31.59691
211	5.43090	3.0905119	75.8356	75.4051	7.174009	31.60858
212	5.43220	3.0915801	76.9439	76.5069	7.173298	31.61891
213	5.43160	3.0928021	78.0947	77.6510	7.172750	31.63274
214	5.43055	3.0939382	79.2853	78.8346	7.172307	31.64601
215	5.42609	3.0962230	80.4332	79.9757	7.171687	31.67552
216	5.41133	3.0998785	81.5720	81.1078	7.171656	31.73029
217	5.39768	3.1012309	82.7229	82.2520	7.172711	31.75797
218	5.39503	3.1018336	83.9134	83.4355	7.172757	31.76673
219	5.39338	3.1022949	85.0919	84.6070	7.172749	31.77295
220	5.39093	3.1026456	86.2641	85.7723	7.172902	31.77868
221	5.38887	3.1038876	87.4425	86.9437	7.172529	31.79413
222	5.38208	3.1047549	88.6908	88.1847	7.172966	31.80980
223	5.37443	3.1065569	89.9270	89.4135	7.173011	31.83688
224	5.36943	3.1084331	91.1511	90.6304	7.172677	31.86231
225	5.36843	3.1093808	92.4086	91.8804	7.172327	31.87340
226	5.36783	3.1102239	93.6844	93.1486	7.171983	31.88291
227	5.36838	3.1110364	94.9481	94.4048	7.171507	31.89099
228	5.36823	3.1141261	96.2360	95.6850	7.169905	31.92556
229	5.36723	3.1179681	97.5361	96.9774	7.168009	31.96947
230	5.36573	3.1187383	98.8363	98.2698	7.167819	31.97900
231	5.36698	3.1182153	100.1486	99.5743	7.167969	31.97124
232	5.36603	3.1197553	101.4123	100.8304	7.167297	31.98900
233	5.36313	3.1201869	102.7065	102.1168	7.167466	31.99603
234	5.36203	3.1215548	103.9731	103.3759	7.166905	32.01199
235	5.36103	3.1223500	105.2521	104.6472	7.166637	32.02135
236	5.35968	3.1251357	106.5584	105.9456	7.165350	32.05362
237	5.35773	3.1272443	107.8433	107.2228	7.164502	32.07879
238	5.36028	3.1285949	109.1282	108.5000	7.163484	32.09106
239	5.36353	3.1303157	110.4071	109.7712	7.162180	32.10686
240	5.36348	3.1316113	111.6951	111.0515	7.161524	32.12099
241	5.35209	3.1329072	112.9893	112.3378	7.162313	32.14599
242	5.33595	3.1338393	114.2956	113.6362	7.163901	32.17142
243	5.33056	3.1337966	115.6080	114.9407	7.164642	32.17546
244	5.32322	3.1334331	116.9357	116.2604	7.165803	32.17773
245	5.30855	3.1351119	118.2876	117.6040	7.166806	32.21025
246	5.30166	3.1377786	119.6426	118.9509	7.166287	32.24654
247	5.30346	3.1407363	121.0097	120.3096	7.164505	32.27779
248	5.30870	3.1421941	122.3496	121.6414	7.163088	32.28867
249	5.31014	3.1442761	123.6864	122.9701	7.161819	32.31031
250	5.31578	3.1468035	125.0414	124.3168	7.159780	32.33295
251	5.33226	3.1493934	126.4390	125.7059	7.156333	32.34583
252	5.35179	3.1518109	127.8306	127.0890	7.152593	32.35379
253	5.37123	3.1533756	129.2130	128.4629	7.149324	32.35214
254	5.38712	3.1559490	130.5863	129.8279	7.145968	32.36536
255	5.40153	3.1584056	131.9627	131.1958	7.142867	32.37869
256	5.40673	3.1609064	133.3511	132.5757	7.140909	32.40138
257	5.41108	3.1642811	134.7580	133.9740	7.138595	32.43479
258	5.40398	3.1670501	136.1618	135.3692	7.138051	32.47241
259	5.40543	3.1722371	137.5595	136.7582	7.135139	32.52922
260	5.42324	3.1770116	138.9601	138.1502	7.130386	32.56548
261	5.43896	3.1809821	140.3548	139.5363	7.126330	32.59462
262	5.45243	3.1862273	141.7615	140.9343	7.121884	32.64038
263	5.45939	3.1887054	143.1744	142.3385	7.119728	32.66104
264	5.46114	3.1899853	144.5752	143.7306	7.118861	32.67317
265	5.46239	3.1905262	145.9364	145.0834	7.118448	32.67742
266	5.46319	3.1913031	147.2762	146.4149	7.117967	32.68479
267	5.46750	3.1930308	148.6038	147.7342	7.116541	32.69955
268	5.47131	3.1937023	149.9256	149.0478	7.115738	32.70281
269	5.47291	3.1939762	151.2714	150.3853	7.115423	32.70369
270	5.47376	3.1942935	152.5900	151.6957	7.115179	32.70581
271	5.47321	3.1944741	153.8903	152.9879	7.115182	32.70776
272	5.47296	3.1945864	155.1906	154.2800	7.115184	32.70863
273	5.47321	3.1947608	156.4848	155.5661	7.115090	32.70973
274	5.47211	3.1949539	157.7820	156.8552	7.115156	32.71235
275	5.46935	3.1951532	159.0671	158.1324	7.115425	32.71666
276	5.46770	3.1954644	160.3645	159.4216	7.115497	32.72116
277	5.46650	3.1969506	161.6556	160.7046	7.114890	32.73856
278	5.47221	3.1983125	162.9286	161.9696	7.113482	32.74782
279	5.47792	3.2007444	164.2259	163.2588	7.111509	32.76920
280	5.49251	3.2062447	165.5383	164.5629	7.106803	32.81672
281	5.50770	3.2099303	166.8843	165.9005	7.102987	32.84302
282	5.51908	3.2129884	168.2425	167.2501	7.099982	32.86591
283	5.52379	3.2155243	169.5762	168.5754	7.098086	32.88939
284	5.52721	3.2168706	170.9222	169.9129	7.096981	32.90065
285	5.52816	3.2170829	172.2346	171.2170	7.096780	32.90147
286	5.52881	3.2175569	173.5046	172.4789	7.096478	32.90558
287	5.52956	3.2177817	174.7591	173.7255	7.096294	32.90677
288	5.52971	3.2179628	176.0200	174.9784	7.096209	32.90805
289	5.52971	3.2180504	177.3019	176.2522	7.096192	32.90841
290	5.52971	3.2183625	178.6053	177.5473	7.096058	32.91131
291	5.52916	3.2186247	179.8813	178.8151	7.096017	32.91419
292	5.52916	3.2191860	181.1572	180.0830	7.095751	32.91992
293	5.53137	3.2227402	182.4513	181.3688	7.093630	32.95741
294	5.53428	3.2246179	183.7578	182.6670	7.092308	32.97519
295	5.53834	3.2273507	185.0611	183.9620	7.090391	33.00154
296	5.54115	3.2285678	186.3615	185.2541	7.089430	33.01194
297	5.54391	3.2319200	187.6647	186.5490	7.087350	33.04658
298	5.55415	3.2399212	188.9801	187.8560	7.081894	33.12656
299	5.55897	3.2408589	190.2803	189.1478	7.080833	33.13181
300	5.55932	3.2411343	191.5627	190.4220	7.080675	33.13395
301	5.55987	3.2413722	192.8416	191.6927	7.080510	33.13546
302	5.56023	3.2415288	194.1235	192.9663	7.080414	33.13626
303	5.56088	3.2419855	195.4330	194.2674	7.080123	33.14014
304	5.56213	3.2426985	196.7424	195.5684	7.079622	33.14634
305	5.56264	3.2428676	198.0366	196.8542	7.079501	33.14712
306	5.56244	3.2431181	199.3185	198.1279	7.079424	33.14952
307	5.56254	3.2433810	200.6219	199.4229	7.079303	33.15175
308	5.56439	3.2443879	201.9162	200.7088	7.078573	33.16069
309	5.56635	3.2448760	203.2042	201.9885	7.078103	33.16366
310	5.56781	3.2458831	204.5075	203.2833	7.077423	33.17299
311	5.57137	3.2472718	205.8047	204.5721	7.076281	33.18457
312	5.57388	3.2479977	207.1232	205.8820	7.075619	33.18967
313	5.57584	3.2485110	208.4385	207.1889	7.075138	33.19290
314	5.57735	3.2492745	209.7541	208.4959	7.074580	33.19942
315	5.57921	3.2503698	211.0665	209.7997	7.073805	33.20934
316	5.58609	3.2546819	212.3881	211.1127	7.070719	33.25075
317	5.59267	3.2563225	213.6792	212.3954	7.069075	33.26220
318	5.59503	3.2566797	214.9702	213.6780	7.068625	33.26328
319	5.59548	3.2570183	216.2674	214.9667	7.068422	33.26602
320	5.59568	3.2570750	217.5555	216.2464	7.068397	33.26583
321	5.59578	3.2572570	218.8161	217.4987	7.068318	33.26716
322	5.59609	3.2581090	220.0647	218.7392	7.067862	33.27590
323	5.59739	3.2587043	221.3283	219.9945	7.067417	33.28072
324	5.59769	3.2588112	222.5799	221.2379	7.067353	33.28101
325	5.59764	3.2591936	223.8314	222.4811	7.067187	33.28477
326	5.59830	3.2601460	225.0920	223.7335	7.066636	33.29429
327	5.60332	3.2627901	226.3831	225.0161	7.064658	33.31863
328	5.60769	3.2636113	227.6925	226.3169	7.063719	33.32296
329	5.61016	3.2650029	228.9713	227.5872	7.062715	33.33565
330	5.61448	3.2668084	230.0462	228.6551	7.061261	33.35129
331	5.61810	3.2681188	230.6648	229.2695	7.060143	33.36224
332	5.62016	3.2687458	230.8695	229.4730	7.059565	33.36720
333	5.62127	3.2691221	230.9982	229.6008	7.059235	33.37030
334	5.62182	3.2694921	231.1086	229.7104	7.058976	33.37388
335	5.62252	3.2696990	231.1975	229.7987	7.058783	33.37549
336	5.62298	3.2698621	231.2744	229.8751	7.058643	33.37685
337	5.62328	3.2699436	231.3482	229.9484	7.058565	33.37744
338	5.62378	3.2701192	231.4220	230.0218	7.058413	33.37889
339	5.62428	3.2704140	231.4745	230.0739	7.058198	33.38170
340	5.62539	3.2705833	231.5149	230.1140	7.057974	33.38250
341	5.62609	3.2706648	231.5461	230.1450	7.057846	33.38272
342	5.62644	3.2707777	231.5712	230.1700	7.057744	33.38363
343	5.62770	3.2707400	231.4564	230.0559	7.057606	33.38202
344	5.62991	3.2704075	231.0737	229.6757	7.057500	33.37625
345	5.63072	3.2700436	230.5936	229.1989	7.057581	33.37158
346	5.62639	3.2684320	230.0254	228.6343	7.058944	33.35789
347	5.62358	3.2679491	229.4113	228.0244	7.059529	33.35552
348	5.62081	3.2667390	228.7974	227.4145	7.060489	33.34486
349	5.61760	3.2656857	228.1711	226.7923	7.061423	33.33642
350	5.61584	3.2652092	227.5482	226.1735	7.061875	33.33308
351	5.61393	3.2643442	226.9220	225.5514	7.062549	33.32548
352	5.61141	3.2636421	226.2927	224.9263	7.063212	33.32033
353	5.61001	3.2632159	225.6939	224.3314	7.063596	33.31719
354	5.60890	3.2626706	225.0981	223.7396	7.064004	33.31240
355	5.60684	3.2616429	224.4842	223.1297	7.064783	33.30311
356	5.60468	3.2608973	223.8974	222.5468	7.065427	33.29709
357	5.60247	3.2599826	223.3109	221.9641	7.066166	33.28920
358	5.60086	3.2595815	222.7303	221.3873	7.066562	33.28654
359	5.59985	3.2592619	222.1528	220.8136	7.066840	33.28420
360	5.60006	3.2590488	221.5753	220.2398	7.066914	33.28187
361	5.60001	3.2589547	221.0007	219.6690	7.066956	33.28114
362	5.60016	3.2585662	220.4352	219.1072	7.067128	33.27687
363	5.59885	3.2579398	219.8821	218.5578	7.067606	33.27134
364	5.59890	3.2575827	219.3289	218.0082	7.067774	33.26752
365	5.59815	3.2573321	218.7695	217.4525	7.067986	33.26571
366	5.59744	3.2571691	218.2194	216.9060	7.068146	33.26483
367	5.59714	3.2570500	217.6814	216.3715	7.068233	33.26404
368	5.59664	3.2568682	217.1464	215.8400	7.068378	33.26275
369	5.59614	3.2563922	216.6206	215.3176	7.068678	33.25811
370	5.59543	3.2561667	216.1008	214.8012	7.068871	33.25651
371	5.59543	3.2562980	215.6115	214.3151	7.068791	33.25824
372	5.59589	3.2566172	215.1037	213.8106	7.068556	33.26166
373	5.59619	3.2566608	214.5808	213.2912	7.068484	33.26212
374	5.59609	3.2566231	214.0702	212.7839	7.068504	33.26204
375	5.59619	3.2566542	213.5595	212.2765	7.068464	33.26255
376	5.59649	3.2567793	213.0549	211.7752	7.068349	33.26392
377	5.59639	3.2560904	212.5565	211.2800	7.068712	33.25646
378	5.59413	3.2547381	212.0486	210.7755	7.069689	33.24363
379	5.59156	3.2534360	211.5563	210.2863	7.070678	33.23165
380	5.58805	3.2520966	211.0579	209.7912	7.071805	33.22019
381	5.58584	3.2512643	210.5715	209.3080	7.072504	33.21319
382	5.58388	3.2506384	210.0668	208.8065	7.073063	33.20828
383	5.58237	3.2501691	209.5803	208.3232	7.073485	33.20469
384	5.58137	3.2498999	209.0971	207.8431	7.073740	33.20287
385	5.58051	3.2494431	208.6168	207.3660	7.074074	33.19877
386	5.57961	3.2490488	208.1212	206.8736	7.074382	33.19544
387	5.57896	3.2487797	207.6168	206.3724	7.074592	33.19329
388	5.57795	3.2484605	207.0451	205.8045	7.074871	33.19094
389	5.57780	3.2482226	206.4946	205.2575	7.075002	33.18867
390	5.57644	3.2478159	205.9200	204.6866	7.075371	33.18568
391	5.57524	3.2475280	205.3486	204.1190	7.075658	33.18389
392	5.57474	3.2472339	204.7829	203.5569	7.075862	33.18133
393	5.57313	3.2465583	204.2173	202.9950	7.076403	33.17554
394	5.57208	3.2460641	203.6396	202.4210	7.076780	33.17127
395	5.57062	3.2455825	203.0315	201.8169	7.077199	33.16755
396	5.56956	3.2451884	202.4445	201.2337	7.077524	33.16441
397	5.56826	3.2448005	201.8486	200.6416	7.077875	33.16160
398	5.56771	3.2446628	201.2465	200.0434	7.078002	33.16088
399	5.56746	3.2445626	200.6594	199.4602	7.078073	33.16028
400	5.56700	3.2442185	200.0453	198.8500	7.078295	33.15713
401	5.56585	3.2439183	199.4492	198.2577	7.078583	33.15516
402	5.56515	3.2436493	198.8289	197.6414	7.078797	33.15311
403	5.56464	3.2434053	198.2054	197.0220	7.078973	33.15115
404	5.56409	3.2432488	197.6064	196.4269	7.079110	33.15022
405	5.56394	3.2433049	196.9831	195.8075	7.079085	33.15131
406	5.56399	3.2432359	196.3777	195.2060	7.079101	33.15078
407	5.56379	3.2430857	195.7574	194.5897	7.079191	33.14958
408	5.56349	3.2427229	195.1400	193.9763	7.079405	33.14608
409	5.56294	3.2423852	194.4984	193.3388	7.079636	33.14311
410	5.56238	3.2421788	193.8687	192.7132	7.079799	33.14163
411	5.56228	3.2420911	193.2483	192.0968	7.079843	33.14104
412	5.56223	3.2420284	192.6156	191.4681	7.079867	33.14069
413	5.56233	3.2419594	191.9801	190.8367	7.079877	33.14013
414	5.56203	3.2418780	191.3506	190.2112	7.079942	33.13981
415	5.56183	3.2416403	190.7150	189.5797	7.080078	33.13763
416	5.56163	3.2414526	190.0793	188.9481	7.080187	33.13602
417	5.56163	3.2413461	189.4407	188.3136	7.080228	33.13513
418	5.56148	3.2412272	188.7928	187.6698	7.080294	33.13425
419	5.56138	3.2409520	188.1420	187.0232	7.080437	33.13155
420	5.56128	3.2395895	187.5123	186.3976	7.081152	33.11652
421	5.55902	3.2368841	186.8645	185.7539	7.082841	33.08840
422	5.55526	3.2336926	186.2076	185.1011	7.084974	33.05626
423	5.54979	3.2307769	185.5779	184.4755	7.087175	33.02890
424	5.54707	3.2297094	184.9331	183.8348	7.088059	33.01978
425	5.54502	3.2281678	184.2975	183.2032	7.089113	33.00464
426	5.54196	3.2270507	183.6587	182.5685	7.090068	32.99529
427	5.54085	3.2256094	183.0321	181.9460	7.090950	32.98035
428	5.53774	3.2234074	182.4207	181.3384	7.092484	32.95874
429	5.53573	3.2218857	181.7972	180.7189	7.093523	32.94377
430	5.53252	3.2203767	181.1890	180.1145	7.094704	32.93011
431	5.53077	3.2193853	180.5806	179.5100	7.095432	32.92089
432	5.52996	3.2190361	179.9815	178.9147	7.095703	32.91802
433	5.52951	3.2187242	179.3852	178.3223	7.095910	32.91522
434	5.52996	3.2186056	178.7831	177.7239	7.095902	32.91373
435	5.53072	3.2185119	178.1990	177.1436	7.095844	32.91222
436	5.53047	3.2183559	177.5999	176.5483	7.095944	32.91099
437	5.53082	3.2183183	177.0006	175.9528	7.095907	32.91052
438	5.53067	3.2181561	176.4076	175.3635	7.095997	32.90912
439	5.53022	3.2180063	175.8085	174.7683	7.096119	32.90816
440	5.53006	3.2178130	175.2212	174.1847	7.096226	32.90641
441	5.52981	3.2176009	174.5977	173.5652	7.096355	32.90456
442	5.52911	3.2174324	173.9772	172.9485	7.096517	32.90364
443	5.52881	3.2173574	173.3112	172.2867	7.096579	32.90342
444	5.52906	3.2172949	172.6357	171.6156	7.096565	32.90280
445	5.52926	3.2170516	171.9605	170.9446	7.096653	32.90018
446	5.52811	3.2168645	171.2852	170.2736	7.096880	32.89952
447	5.52796	3.2166711	170.6099	169.6025	7.096985	32.89781
448	5.52741	3.2163406	169.9313	168.9283	7.097213	32.89493
449	5.52645	3.2157734	169.2469	168.2481	7.097615	32.88977
450	5.52485	3.2149632	168.5717	167.5772	7.098227	32.88249
451	5.52379	3.2141469	167.8810	166.8909	7.098774	32.87461
452	5.52324	3.2134864	167.1753	166.1896	7.099175	32.86801
453	5.52209	3.2129816	166.4817	165.5004	7.099570	32.86376
454	5.52194	3.2127883	165.7941	164.8171	7.099675	32.86206
455	5.52149	3.2123396	165.0792	164.1067	7.099952	32.85776
456	5.51893	3.2106331	164.3734	163.4054	7.101156	32.84127
457	5.51371	3.2093564	163.6554	162.6919	7.102465	32.83224
458	5.51111	3.2084348	162.9434	161.9843	7.103261	32.82469
459	5.50729	3.2068660	162.2227	161.2682	7.104550	32.81097
460	5.49962	3.2034307	161.5017	160.5517	7.107309	32.77986
461	5.48764	3.2005256	160.7925	159.8469	7.110328	32.75894
462	5.48328	3.1998351	160.0717	159.1306	7.111223	32.75571
463	5.48143	3.1986968	159.3507	158.4141	7.112041	32.74496
464	5.47832	3.1977578	158.6113	157.6793	7.112911	32.73770
465	5.47622	3.1971545	157.8780	156.9507	7.113477	32.73327
466	5.47261	3.1958612	157.1511	156.2283	7.114597	32.72247
467	5.46961	3.1953265	156.4238	155.5055	7.115241	32.71969
468	5.46930	3.1950092	155.6631	154.7496	7.115429	32.71676
469	5.47071	3.1949531	154.8844	153.9758	7.115265	32.71514
470	5.47206	3.1947912	154.1176	153.2137	7.115164	32.71236
471	5.47186	3.1947040	153.3569	152.4577	7.115217	32.71194
472	5.47201	3.1946229	152.5781	151.6838	7.115224	32.71126
473	5.47226	3.1945295	151.8023	150.9128	7.115224	32.71034
474	5.47296	3.1944795	151.0418	150.1570	7.115145	32.70947
475	5.47291	3.1942742	150.2566	149.3767	7.115242	32.70757
476	5.47276	3.1942056	149.4685	148.5936	7.115279	32.70733
477	5.47261	3.1938200	148.6621	147.7922	7.115483	32.70350
478	5.47171	3.1936271	147.8651	147.0001	7.115680	32.70258
479	5.47206	3.1933348	147.0558	146.1958	7.115773	32.69933
480	5.47201	3.1929058	146.2616	145.4065	7.115988	32.69490
481	5.47021	3.1921910	145.4492	144.5992	7.116574	32.68895
482	5.46770	3.1912961	144.6396	143.7946	7.117344	32.68163
483	5.46550	3.1907740	143.8092	142.9693	7.117878	32.67826
484	5.46430	3.1904631	142.9815	142.1468	7.118175	32.67631
485	5.46349	3.1903325	142.1813	141.3515	7.118326	32.67600
486	5.46324	3.1894067	141.3810	140.5561	7.118830	32.66613
487	5.46164	3.1876054	140.5837	139.7638	7.119968	32.64765
488	5.45929	3.1860900	139.7928	138.9778	7.121049	32.63313
489	5.45723	3.1847985	139.0167	138.2065	7.121975	32.62085
490	5.45217	3.1811985	138.2227	137.4173	7.124503	32.58531
491	5.44156	3.1783010	137.4314	136.6309	7.127359	32.56311
492	5.43150	3.1745985	136.5733	135.7781	7.130573	32.53126
493	5.41789	3.1714244	135.7062	134.9163	7.133957	32.50884
494	5.40308	3.1665604	134.8297	134.0452	7.138395	32.46837
495	5.40298	3.1634326	133.9505	133.1714	7.140053	32.43338
496	5.40863	3.1605411	133.0860	132.3122	7.140857	32.39553
497	5.40738	3.1583809	132.2431	131.4745	7.142146	32.37263
498	5.40458	3.1568771	131.3974	130.6339	7.143282	32.35867
499	5.39768	3.1551200	130.5665	129.8081	7.145073	32.34579
500	5.39258	3.1544517	129.7116	128.9584	7.146056	32.34354
501	5.38527	3.1531466	128.8654	128.1175	7.147657	32.33617
502	5.37163	3.1517118	128.0165	127.2738	7.150133	32.33344
503	5.35654	3.1501846	127.1736	126.4360	7.152844	32.33105
504	5.34345	3.1490161	126.3185	125.5861	7.155111	32.33081
505	5.33201	3.1466860	125.4756	124.7484	7.157790	32.31576
506	5.31963	3.1451474	124.6235	123.9015	7.160168	32.31061
507	5.31543	3.1438560	123.7624	123.0456	7.161373	32.30039
508	5.31284	3.1414346	122.9194	122.2078	7.162980	32.27576
509	5.30840	3.1396251	122.0703	121.3638	7.164495	32.25987
510	5.30465	3.1388161	121.2122	120.5109	7.165385	32.25469
511	5.30226	3.1385072	120.3511	119.6550	7.165836	32.25391
512	5.30211	3.1384082	119.4808	118.7900	7.165888	32.25335
513	5.30206	3.1381178	118.6105	117.9250	7.166030	32.25052
514	5.30066	3.1373089	117.7583	117.0780	7.166622	32.24309
515	5.30076	3.1357472	116.9031	116.2280	7.167426	32.22564
516	5.31434	3.1345867	116.0359	115.3660	7.166297	32.19982
517	5.32762	3.1345369	115.1532	114.4887	7.164611	32.18693
518	5.33276	3.1345613	114.2617	113.6025	7.163922	32.18270
519	5.33546	3.1344623	113.3883	112.7344	7.163611	32.17942
520	5.33825	3.1343201	112.5179	111.8693	7.163310	32.17555
521	5.34265	3.1335362	111.6263	110.9831	7.163149	32.16286
522	5.35259	3.1324192	110.7529	110.1149	7.162459	32.14106
523	5.35818	3.1310310	109.8764	109.2437	7.162467	32.12037
524	5.35813	3.1294704	108.9726	108.3454	7.163287	32.10314
525	5.35733	3.1287056	108.0717	107.4499	7.163777	32.09566
526	5.35708	3.1282120	107.1831	106.5666	7.164052	32.09073
527	5.35679	3.1273055	106.3097	105.6984	7.164555	32.08115
528	5.35818	3.1262202	105.4150	104.8092	7.164936	32.06792
529	5.36088	3.1252954	104.5142	103.9137	7.165065	32.05528
530	5.36308	3.1241857	103.6164	103.0213	7.165357	32.04102
531	5.36623	3.1224909	102.7215	102.1318	7.165840	32.01922
532	5.36738	3.1216034	101.8239	101.2396	7.166146	32.00849
533	5.36748	3.1213814	100.9260	100.3470	7.166232	32.00631
534	5.36753	3.1211840	100.0373	99.4637	7.166310	32.00446
535	5.36758	3.1213562	99.1517	98.5833	7.166192	32.00679
536	5.36758	3.1203518	98.2417	97.6787	7.166707	31.99584
537	5.36748	3.1199081	97.3257	96.7682	7.166936	31.99135
538	5.36728	3.1183004	96.4249	95.8727	7.167800	31.97373
539	5.36738	3.1171794	95.5300	94.9832	7.168366	31.96135
540	5.36728	3.1158985	94.6353	94.0938	7.169042	31.94735
541	5.36758	3.1147901	93.7223	93.1862	7.169575	31.93493
542	5.36793	3.1142174	92.8336	92.3028	7.169816	31.92854
543	5.36853	3.1127893	91.9296	91.4043	7.170482	31.91220
544	5.36873	3.1108507	91.0257	90.5057	7.171472	31.89046
545	5.36793	3.1085128	90.1340	89.6192	7.172803	31.86514
546	5.36773	3.1074239	89.2727	88.7630	7.173391	31.85339
547	5.36913	3.1066488	88.4023	87.8979	7.173606	31.84370
548	5.37293	3.1053141	87.5593	87.0598	7.173813	31.82537
549	5.37738	3.1044961	86.7131	86.2186	7.173661	31.81228
550	5.38078	3.1037520	85.8763	85.3867	7.173604	31.80103
551	5.38302	3.1033030	85.0605	84.5758	7.173536	31.79420
552	5.38387	3.1032659	84.2267	83.7469	7.173428	31.79338
553	5.38407	3.1031304	83.3592	82.8845	7.173455	31.79207
554	5.38672	3.1014645	82.5283	82.0585	7.173986	31.77108
555	5.39238	3.1001000	81.7036	81.2387	7.173971	31.75067
556	5.39703	3.0990736	80.8726	80.4126	7.173904	31.73504
557	5.39933	3.0987170	80.0357	79.5806	7.173780	31.72923
558	5.40088	3.0980779	79.1988	78.7486	7.173903	31.72093
559	5.40463	3.0968552	78.3709	77.9255	7.174056	31.70394
560	5.41243	3.0944107	77.5491	77.1086	7.174340	31.66929
561	5.41749	3.0936061	76.7183	76.2827	7.174101	31.65581
562	5.41914	3.0927647	75.9178	75.4868	7.174320	31.64512
563	5.41944	3.0917516	75.1052	74.6790	7.174803	31.63376
564	5.41889	3.0911191	74.2804	73.8590	7.175192	31.62752
565	5.41804	3.0905420	73.4647	73.0481	7.175591	31.62218
566	5.41664	3.0901551	72.6826	72.2706	7.175959	31.61950
567	5.41749	3.0900383	71.8668	71.4596	7.175894	31.61777
568	5.42344	3.0896636	71.0756	70.6730	7.175311	31.60830
569	5.42900	3.0894792	70.2995	69.9014	7.174678	31.60136
570	5.43500	3.0892949	69.5233	69.1297	7.173987	31.59400
571	5.43871	3.0890860	68.7533	68.3642	7.173605	31.58852
572	5.44016	3.0888157	67.9863	67.6017	7.173546	31.58447
573	5.44036	3.0883492	67.2223	66.8421	7.173751	31.57937
574	5.44056	3.0881097	66.4676	66.0918	7.173836	31.57684
575	5.44291	3.0878885	65.7189	65.3474	7.173634	31.57248
576	5.44657	3.0876061	64.9487	64.5818	7.173298	31.56622
577	5.45177	3.0870475	64.1725	63.8101	7.172909	31.55539
578	5.44516	3.0851581	63.4269	63.0687	7.174747	31.54059
579	5.43881	3.0845323	62.6873	62.3334	7.175881	31.53985
580	5.43791	3.0844156	61.9508	61.6013	7.176042	31.53973
581	5.44291	3.0842988	61.2385	60.8931	7.175445	31.53405
582	5.44456	3.0841453	60.5265	60.1851	7.175298	31.53110
583	5.45843	3.0846417	59.8172	59.4800	7.173236	31.52403
584	5.48509	3.0853404	59.1020	58.7689	7.169425	31.50726
585	5.51126	3.0855730	58.3836	58.0547	7.165927	31.48570
586	5.50363	3.0856894	57.6804	57.3556	7.166827	31.49449
587	5.52736	3.0865109	56.9835	56.6626	7.163333	31.48188
588	5.56183	3.0877373	56.2835	55.9666	7.158250	31.46377
589	5.57413	3.0875407	55.6078	55.2949	7.156763	31.45037
590	5.61498	3.0914490	54.9351	54.6260	7.149458	31.45653
591	5.71483	3.0918836	54.2473	53.9422	7.136467	31.36865
592	5.69231	3.0922213	53.5655	53.2643	7.139146	31.39372
593	5.75107	3.0954132	52.8928	52.5954	7.129968	31.37517
594	5.82501	3.0972793	52.1807	51.8874	7.119573	31.32775
595	5.86954	3.0985011	51.4927	51.2034	7.113268	31.30047
596	5.88755	3.0988447	50.8110	50.5257	7.110790	31.28797
597	5.89620	3.0991578	50.1200	49.8386	7.109515	31.28379
598	5.90819	3.0996182	49.4291	49.1516	7.107740	31.27816
599	5.91832	3.0999251	48.7259	48.4525	7.106283	31.27256
600	5.92855	3.1004594	48.0318	47.7624	7.104695	31.26939
601	5.94967	3.1013254	47.3229	47.0575	7.101556	31.25988
602	5.96827	3.1018536	46.6226	46.3613	7.098914	31.24892
603	5.98059	3.1025232	45.9164	45.6591	7.096994	31.24535
604	6.01071	3.1041577	45.2133	44.9599	7.092326	31.23610
605	6.04381	3.1053192	44.5073	44.2580	7.087533	31.21886
606	6.07296	3.1061303	43.8132	43.5679	7.083423	31.20137
607	6.07368	3.1060747	43.1131	42.8718	7.083347	31.20043
608	6.09340	3.1071935	42.4191	42.1817	7.080271	31.19504
609	6.10855	3.1074576	41.7190	41.4857	7.078211	31.18438
610	6.11419	3.1076296	41.0068	40.7775	7.077396	31.18143
611	6.11664	3.1076355	40.3007	40.0754	7.077071	31.17959
612	6.11638	3.1075307	39.6248	39.4033	7.077142	31.17897
613	6.11750	3.1075490	38.9490	38.7314	7.076977	31.17847
614	6.11699	3.1075611	38.2733	38.0595	7.077020	31.17938
615	6.11658	3.1075240	37.6310	37.4209	7.077076	31.17965
616	6.11745	3.1076345	36.9827	36.7763	7.076897	31.18038
617	6.11898	3.1077081	36.3770	36.1739	7.076654	31.18008
618	6.12274	3.1079909	36.1000	35.8986	7.076029	31.17989
619	6.13068	3.1081876	35.9173	35.7169	7.074925	31.17487
620	6.13470	3.1083474	35.7410	35.5416	7.074333	31.17304
621	6.13836	3.1084887	35.5281	35.3299	7.073795	31.17134
622	6.14024	3.1085317	35.4003	35.2029	7.073533	31.17015
623	6.13729	3.1083719	35.3882	35.1907	7.073986	31.17109
624	6.13617	3.1083595	35.0838	34.8881	7.074127	31.17212
625	6.13500	3.1083040	34.7855	34.5915	7.074296	31.17272
626	6.13378	3.1082486	34.4691	34.2769	7.074472	31.17338
627	6.13286	3.1081931	34.0399	33.8501	7.074606	31.17380
628	6.13297	3.1082176	33.5590	33.3719	7.074570	31.17421
629	6.13515	3.1083896	33.0841	32.8997	7.074196	31.17433
630	6.14101	3.1087154	32.5940	32.4124	7.073282	31.17280
631	6.14778	3.1088936	32.1040	31.9252	7.072329	31.16879
632	6.14859	3.1088135	31.6201	31.4439	7.072257	31.16738
633	6.14773	3.1087703	31.1177	30.9444	7.072377	31.16793
634	6.14997	3.1089054	30.5820	30.4117	7.072015	31.16763
635	6.15063	3.1088376	30.0158	29.8487	7.071954	31.16653
636	6.15261	3.1089912	29.4101	29.2464	7.071612	31.16670
637	6.15526	3.1090648	28.8133	28.6531	7.071229	31.16536
638	6.15745	3.1091815	28.2319	28.0749	7.070881	31.16492
639	6.15888	3.1091874	27.6261	27.4725	7.070686	31.16396
640	6.15928	3.1091811	27.0173	26.8671	7.070625	31.16380
641	6.16066	3.1092916	26.3750	26.2284	7.070381	31.16407
642	6.16550	3.1095620	25.7480	25.6050	7.069621	31.16292
643	6.16921	3.1096049	25.1178	24.9783	7.069118	31.16028
644	6.16865	3.1094386	24.4755	24.3396	7.069260	31.15925
645	6.16621	3.1093769	23.8484	23.7160	7.069585	31.16110
646	6.17752	3.1115791	23.2060	23.0773	7.067024	31.17544
647	6.30720	3.1191433	22.5456	22.4205	7.046902	31.14061
648	6.39662	3.1213412	21.8726	21.7513	7.034608	31.08350
649	6.43442	3.1226528	21.2029	21.0853	7.029219	31.06381
650	6.45109	3.1237863	20.5270	20.4132	7.026558	31.06143
651	6.48525	3.1258750	19.8391	19.7291	7.021242	31.05363
652	6.56553	3.1298938	19.1572	19.0510	7.009241	31.02512
653	6.67823	3.1325878	18.4569	18.3547	6.993927	30.95288
654	6.74732	3.1356842	17.7110	17.6129	6.983842	30.92467
655	6.84389	3.1393433	16.9865	16.8925	6.970123	30.87791
656	7.02769	3.1445166	16.2862	16.1961	6.945024	30.76968
657	7.26128	3.1504282	15.5769	15.4908	6.913656	30.62605
658	7.44770	3.1541115	14.8675	14.7853	6.889272	30.50139
659	7.54537	3.1559350	14.1521	14.0738	6.876593	30.43549
660	7.63936	3.1565834	13.4154	13.3413	6.864946	30.36056
661	7.75352	3.1583207	12.6635	12.5935	6.850393	30.27998
662	8.07139	3.1656781	11.9296	11.8638	6.808977	30.08357
663	8.39739	3.1704201	11.1746	11.1130	6.768176	29.85554
664	8.53478	3.1710320	10.4227	10.3652	6.751706	29.74617
665	8.80654	3.1601346	9.6768	9.6235	6.724670	29.40680
666	9.16565	3.1513093	8.9310	8.8817	6.686618	29.02194
667	9.28826	3.1399948	8.1669	8.1218	6.677255	28.80803
668	9.46852	3.1085944	7.4026	7.3618	6.669782	28.34703
669	9.87062	3.0872438	6.6566	6.6199	6.632119	27.81975
670	10.16192	3.0768366	5.9168	5.8842	6.602785	27.49431
671	10.34990	3.0626569	5.1618	5.1334	6.586965	27.21357
672	10.85609	3.0204499	4.4008	4.3765	6.545924	26.43154
673	11.70988	2.9484731	3.6426	3.6226	6.476688	25.15022
674	12.59983	2.8938825	2.8784	2.8626	6.396746	24.05987
675	13.03971	2.8664852	2.1417	2.1299	6.357554	23.53460
676	13.63627	2.8307990	1.4351	1.4272	6.304100	22.85295
677	13.93475	2.8275541	0.8386	0.8340	6.272475	22.64799
678	13.99746	2.8265859	0.4031	0.4009	6.265953	22.60284
679	13.96407	2.8184823	0.1596	0.1588	6.272357	22.55110
680	13.81284	2.8159523	0.1566	0.1557	6.289794	22.61736
681	13.62428	0.6858855	0.1597	0.1588	7.045580	4.91615
682	13.50637	0.3403645	0.1565	0.1556	7.177582	2.33636
683	13.42288	0.3696492	0.1567	0.1558	7.181089	2.55580
684	13.31114	0.3355325	0.1565	0.1556	7.209741	2.31286
685	13.16007	0.2815722	0.1535	0.1527	7.251265	1.92834
686	12.98691	0.2463578	0.1535	0.1527	7.290473	1.68188
687	12.84898	0.2278326	0.1504	0.1496	7.318809	1.55422
688	12.73103	0.2094708	0.1535	0.1526	7.344013	1.42680
689	12.63151	0.1995076	0.1564	0.1556	7.363569	1.35891
690	12.54160	0.1494109	0.1564	0.1556	7.394781	1.00503
691	12.45474	0.1331629	0.1592	0.1583	7.414477	0.89275
692	12.36897	0.1526508	0.1591	0.1582	7.422380	1.03256
